% ---------------------------------------
% Time: 17:35:35
% Data columns: 
% time, [idSensor], positionX, positionY, positionZ, velocityX, velocityY, velocityZ, accelerationX, accelerationY, accelerationZ, 
% ---------------------------------------

1093455407.042		0.506328	-2.5422	-126.276		0.0115654	-0.00641596	0.00508943		-0.427074	-0.0795686	-9.77331		
1093455407.149		0.537181	-2.56871	-126.325		-0.00123256	-0.00291132	0.000567025		-0.421376	-0.0790028	-9.77091		
1093455407.243		0.559865	-2.58797	-126.341		0.00358028	-0.0043971	-0.00500456		-0.448674	-0.0932269	-9.75874		
1093455407.341		0.574292	-2.60256	-126.494		-0.010342	-0.00170534	-0.0019472		-0.437371	-0.104431	-9.78778		
1093455407.447		0.564908	-2.60222	-126.531		-0.00045908	-0.00082209	0.00227002		-0.448725	-0.0880638	-9.7801		
1093455407.541		0.554462	-2.59308	-126.528		0.00232283	0.0110237	0.00908367		-0.450992	-0.0994053	-9.77347		
1093455407.642		0.54705	-2.59203	-126.619		-0.00653729	0.0107425	0.00272775		-0.437319	-0.106197	-9.76696		
1093455407.741		0.531777	-2.57473	-126.626		-0.00936475	0.00516784	-3.17432e-05		-0.454421	-0.122042	-9.77368		
1093455407.843		0.538498	-2.56837	-126.681		0.00850697	0.000268177	0.00307819		-0.440164	-0.11413	-9.76482		
1093455407.942		0.538143	-2.57756	-126.827		0.000651892	-0.00230245	-0.00498971		-0.437316	-0.103936	-9.76639		
1093455408.042		0.517307	-2.57789	-126.822		-0.000886926	0.0110447	-7.4395e-05		-0.439621	-0.1073	-9.7766		
1093455408.142		0.505326	-2.56922	-126.836		-0.000870007	0.00144767	0.0131533		-0.437272	-0.0632241	-9.75828		
1093455408.242		0.487617	-2.55072	-126.868		-0.0043397	0.00381139	0.0274657		-0.456655	-0.0937883	-9.76345		
1093455408.341		0.462341	-2.53216	-126.845		-0.0137135	0.0147412	-0.00107629		-0.42596	-0.185991	-9.7581		
1093455408.445		0.472166	-2.54032	-126.959		-0.000955316	0.00168903	-0.00668833		-0.436754	-0.0767468	-9.77523		
1093455408.542		0.4378	-2.56584	-127.086		-0.00193638	-0.00830346	0.00526424		-0.46287	-0.0559173	-9.75439		
1093455408.647		0.42183	-2.57852	-127.118		-0.0049661	-0.00171157	-0.000267507		-0.454394	-0.0779092	-9.77344		
1093455408.742		0.430547	-2.58734	-127.186		0.00782558	0.00812224	0.0128962		-0.43101	-0.0768063	-9.75482		
1093455408.847		0.416672	-2.59804	-127.293		-0.00807459	-0.00391287	0.00444195		-0.439567	-0.0699981	-9.76401		
1093455408.942		0.405586	-2.61671	-127.336		0.00515654	0.0016768	-0.00234541		-0.454947	-0.0835941	-9.7656		
1093455409.046		0.396151	-2.60723	-127.451		-0.00665251	0.00368264	-0.00537937		-0.44418	-0.0835164	-9.78446		
1093455409.142		0.383221	-2.60349	-127.582		-0.00833191	0.00866686	-0.00515739		-0.441805	-0.0417388	-9.75547		
1093455409.244		0.351129	-2.59785	-127.572		-0.00165893	-0.00251286	0.000782544		-0.429328	-0.0529881	-9.77041		
1093455409.342		0.352366	-2.59395	-127.649		0.00714052	0.0102417	0.000631784		-0.447514	-0.0332313	-9.76401		
1093455409.447		0.337174	-2.58108	-127.691		-0.000143034	0.00722227	0.0161367		-0.412225	-0.0280849	-9.76533		
1093455409.542		0.344989	-2.5752	-127.666		-0.0027595	0.00246251	0.00505535		-0.431648	-0.0648264	-9.78461		
1093455409.644		0.360234	-2.58467	-127.732		0.00730678	0.00114555	0.0126853		-0.43729	-0.055273	-9.76725		
1093455409.742		0.385833	-2.58299	-127.81		0.0076234	0.00543738	0.00991017		-0.43614	-0.0700085	-9.75942		
1093455409.845		0.379215	-2.59914	-127.771		0.00220519	0.001853	0.00929736		-0.464614	-0.0734261	-9.76467		
1093455409.942		0.39401	-2.60462	-127.869		-0.000336587	0.00905242	-0.000823974		-0.458935	-0.0824621	-9.76738		
1093455410.048		0.427582	-2.59761	-127.952		0.00984479	0.00385454	0.0037116		-0.456644	-0.0660563	-9.76555		
1093455410.142		0.453489	-2.59191	-127.956		0.00336492	8.216e-05	-0.00201637		-0.427052	-0.0495865	-9.77146		
1093455410.242		0.467098	-2.5753	-128.064		0.00295831	0.00205898	0.00598656		-0.440766	-0.0846435	-9.78438		
1093455410.342		0.475554	-2.55666	-128.103		0.0115327	0.00961807	0.0117041		-0.427069	-0.0682506	-9.77381		
1093455410.448		0.476794	-2.55377	-128.102		-0.0019559	0.000466773	0.00590466		-0.453798	-0.0717144	-9.76438		
1093455410.542		0.487927	-2.55423	-128.2		0.00279307	0.00205568	0.00758756		-0.438433	-0.110761	-9.75632		
1093455410.646		0.504991	-2.56	-128.237		0.00637072	-0.00512146	0.00692922		-0.428208	-0.0959971	-9.7678		
1093455410.742		0.517235	-2.54142	-128.267		0.00990522	0.0110344	0.00221801		-0.44134	-0.0857703	-9.78609		
1093455410.853		0.506471	-2.55051	-128.422		-7.62958e-05	0.00468116	-0.00775946		-0.440774	-0.0891625	-9.78666		
1093455410.942		0.521382	-2.54901	-128.46		0.00121605	0.00127031	0.00226162		-0.455489	-0.0915571	-9.75327		
1093455411.045		0.520818	-2.52191	-128.477		0.00776522	0.0109919	0.0228176		-0.435066	-0.0857788	-9.78087		
1093455411.142		0.554015	-2.50462	-128.592		0.00706832	0.0112345	0.00255237		-0.435618	-0.098259	-9.77138		
1093455411.246		0.554191	-2.48871	-128.61		-0.00540974	0.0116436	0.00058853		-0.427093	-0.108423	-9.77403		
1093455411.342		0.541606	-2.48837	-128.649		0.00601589	0.00566459	-0.00288303		-0.40886	-0.0903023	-9.77065		
1093455411.444		0.51802	-2.49938	-128.781		-0.00574348	0.00397356	-0.00175691		-0.419096	-0.0993893	-9.76477		
1093455411.542		0.492026	-2.51122	-128.774		-0.0158504	-0.00689533	0.00256094		-0.405401	-0.0677047	-9.75862		
1093455411.642		0.423434	-2.53385	-128.826		-0.0134802	-0.000707034	-0.00193132		-0.420264	-0.0767026	-9.78156		
1093455411.742		0.378347	-2.55862	-128.914		-0.0132338	-0.00351932	0.00809505		-0.427096	-0.0778414	-9.78231		
1093455411.845		0.354915	-2.57296	-128.904		-0.00161065	-0.00290888	-0.000497842		-0.438446	-0.0801662	-9.76854		
1093455411.942		0.322716	-2.57677	-128.944		-0.0105235	0.008041	0.0085084		-0.412813	-0.064301	-9.76442		
1093455412.050		0.306941	-2.57049	-129.069		0.000880662	0.0071442	0.00567716		-0.434992	-0.0734168	-9.7549		
1093455412.142		0.296645	-2.60627	-129.069		-0.00483621	-0.00491731	0.00730586		-0.441867	-0.0614768	-9.77528		
1093455412.242		0.2945	-2.62247	-129.094		0.00237545	0.00127606	-0.000731212		-0.457242	-0.0529951	-9.78013		
1093455412.342		0.287635	-2.652	-129.224		0.00757106	-0.00332515	0.00564308		-0.452031	-0.0366824	-9.74894		
1093455412.442		0.297458	-2.68196	-129.262		-0.0034435	0.0022662	0.00377867		-0.465732	-0.0462745	-9.76286		
1093455412.542		0.333354	-2.68894	-129.335		0.010397	0.00366823	-0.00258518		-0.478273	-0.0598573	-9.76719		
1093455412.642		0.362292	-2.68257	-129.489		-0.00576288	0.00662333	-0.0108282		-0.438385	-0.0592407	-9.77497		
1093455412.742		0.36796	-2.67269	-129.541		0.0022524	-0.000963937	-0.00713522		-0.439475	-0.0451492	-9.75916		
1093455412.842		0.375696	-2.64946	-129.576		-0.00146833	0.00626901	-0.00412534		-0.448698	-0.0371375	-9.78095		
1093455412.942		0.381052	-2.61136	-129.657		-0.00127205	-0.00121905	0.00163405		-0.38034	-0.0371144	-9.75893		
1093455413.046		0.380254	-2.57422	-129.608		0.00152592	0.00963672	0.00524726		-0.433887	-0.0473248	-9.77387		
1093455413.142		0.402454	-2.55887	-129.638		-0.00195964	0.00343927	0.0143323		-0.433368	-0.0738722	-9.78751		
1093455413.279		0.412924	-2.57645	-129.725		0.00189186	0.00126682	0.00375169		-0.44072	-0.0711126	-9.76967		
1093455413.342		0.392661	-2.58329	-129.675		-0.00216311	0.0042546	0.00590581		-0.437362	-0.0800939	-9.7899		
1093455413.448		0.39419	-2.56388	-129.773		-0.00175138	0.00268844	-0.00775106		-0.447519	-0.0796572	-9.75526		
1093455413.542		0.408184	-2.54748	-129.899		0.0108268	0.00227322	-0.00290742		-0.456689	-0.0835516	-9.77915		
1093455413.645		0.427435	-2.5199	-129.906		-0.00155825	0.00516178	0.000995607		-0.433356	-0.0829475	-9.78081		
1093455413.743		0.444343	-2.49764	-130.027		-0.00584008	0.00466593	0.000803863		-0.442451	-0.0574945	-9.78203		
1093455413.842		0.45084	-2.491	-130.083		-0.00433936	0.0071357	0.0109307		-0.42938	-0.0801002	-9.78463		
1093455413.942		0.456228	-2.47516	-130.054		0.00436287	0.00443543	0.0131269		-0.420206	-0.0903677	-9.75574		
1093455414.046		0.45512	-2.4803	-130.164		-0.00518972	-0.00748168	-0.00549374		-0.418488	-0.0779214	-9.7545		
1093455414.142		0.461017	-2.50364	-130.205		0.00206045	-0.000817004	-0.00072968		-0.449816	-0.113043	-9.7555		
1093455414.246		0.471816	-2.53641	-130.216		0.00631627	-0.00440339	-0.00267147		-0.447559	-0.103953	-9.76552		
1093455414.342		0.474131	-2.56966	-130.35		0.00452049	0.000486395	-0.0049025		-0.454928	-0.0858834	-9.75773		
1093455414.442		0.482318	-2.57648	-130.403		0.0123891	0.00327464	-0.00547555		-0.437316	-0.0886481	-9.76968		
1093455414.542		0.493609	-2.55449	-130.419		0.00267643	0.00304596	0.0106818		-0.435564	-0.0683178	-9.75714		
1093455414.646		0.488494	-2.5447	-130.509		0.00422783	-0.00192782	0.00555332		-0.423632	-0.0846955	-9.76143		
1093455414.742		0.489426	-2.55189	-130.518		0.000194353	0.00345333	0.00717401		-0.422567	-0.201246	-9.76316		
1093455414.842		0.500666	-2.56247	-130.642		0.00588142	-0.00876055	-0.0161108		-0.410059	-0.0568169	-9.80202		
1093455414.942		0.492579	-2.57274	-130.78		0.00624488	-0.0034986	-0.00629813		-0.438463	-0.0654217	-9.77859		
1093455415.046		0.509603	-2.60286	-130.835		-4.34642e-05	-0.0125247	-0.00744398		-0.43212	-0.0886823	-9.76653		
1093455415.142		0.507276	-2.63114	-130.931		0.00269821	-0.00117366	-0.00233698		-0.444046	-0.0558906	-9.76384		
1093455415.242		0.480933	-2.65984	-131.048		0.00267046	-0.0060709	0.00385033		-0.438939	-0.0932364	-9.7611		
1093455415.342		0.450913	-2.67265	-131.033		-0.0123535	0.000281968	0.0014767		-0.453308	-0.0936943	-9.79038		
1093455415.445		0.409505	-2.68393	-131.111		-0.0115085	0.0059751	-0.00418132		-0.465731	-0.0898769	-9.7524		
1093455415.542		0.367265	-2.69626	-131.225		-0.00195788	-0.00322128	0.00590456		-0.4629	-0.0768298	-9.76126		
1093455415.642		0.317422	-2.70985	-131.21		-0.00468853	-0.00829806	0.00335795		-0.472011	-0.0683436	-9.76483		
1093455415.742		0.276207	-2.72799	-131.285		-0.0112424	-0.00109871	-0.00578303		-0.460026	-0.067803	-9.75213		
1093455415.847		0.239141	-2.71995	-131.398		-0.0104298	-0.000508267	-0.00237343		-0.446955	-0.026988	-9.76959		
1093455415.942		0.214986	-2.72644	-131.395		-0.00543243	-0.00799348	0.000908126		-0.431577	-0.0116909	-9.76911		
1093455416.043		0.188722	-2.69823	-131.491		-0.0117797	0.00347993	-0.00257986		-0.466337	-0.045097	-9.77694		
1093455416.142		0.183126	-2.69333	-131.564		-0.00700905	0.000285675	-0.00153726		-0.465719	-0.0457254	-9.75779		
1093455416.243		0.163848	-2.67832	-131.545		-0.0100769	-0.000723132	0.00487886		-0.458862	-0.0451841	-9.74748		
1093455416.342		0.175531	-2.68102	-131.626		-0.00115556	0.00823307	0.00974123		-0.44696	-0.0343435	-9.76963		
1093455416.447		0.174286	-2.66483	-131.671		-0.00113775	0.00647497	-0.00732734		-0.448671	-0.0405696	-9.76971		
1093455416.542		0.21011	-2.63436	-131.673		0.00973616	0.0114296	0.00392572		-0.446383	-0.0530386	-9.7624		
1093455416.646		0.241544	-2.57261	-131.822		-0.00428417	0.00885657	-0.00155079		-0.43956	-0.0394297	-9.76834		
1093455416.742		0.308418	-2.53827	-131.886		-0.00231352	0.00606962	-0.00390773		-0.427069	-0.0546601	-9.77711		
1093455416.846		0.345826	-2.47984	-131.927		0.00205347	0.0138522	-0.00862338		-0.415172	-0.0562709	-9.79821		
1093455416.942		0.377431	-2.43362	-132.052		-0.0111413	0.00984767	0.00275098		-0.435654	-0.0597077	-9.79425		
1093455417.046		0.41218	-2.38033	-132.058		0.0121108	0.0124234	0.00476717		-0.395262	-0.0686849	-9.80002		
1093455417.142		0.449729	-2.33179	-132.075		0.0190396	0.0088506	-0.00422885		-0.381579	-0.0703941	-9.79067		
1093455417.247		0.49711	-2.32224	-132.17		0.00548952	0.00285043	0.00821403		-0.391216	-0.0812168	-9.77296		
1093455417.342		0.527111	-2.31784	-132.157		0.00663306	0.00503645	0.0111953		-0.406546	-0.0733605	-9.7598		
1093455417.442		0.534267	-2.35036	-132.218		0.00242201	-0.00230963	-0.00201168		-0.403684	-0.0903645	-9.74969		
1093455417.542		0.581102	-2.37927	-132.315		0.00579443	-0.00201089	-0.00266877		-0.399775	-0.162741	-9.76237		
1093455417.642		0.634226	-2.40698	-132.354		0.00913361	-0.00340845	-0.00247232		-0.400366	-0.0817406	-9.78953		
1093455417.742		0.640568	-2.43077	-132.5		0.00102386	-0.00188317	-0.0148059		-0.424747	-0.0745348	-9.75465		
1093455417.846		0.649983	-2.45906	-132.621		0.00288675	-0.00649358	-0.00329428		-0.413479	-0.104947	-9.7928		
1093455417.942		0.64456	-2.49485	-132.623		0.0153978	0.00187047	-0.0020771		-0.431586	-0.0881232	-9.75489		
1093455418.086		0.60184	-2.533	-132.696		-0.00130874	-0.00771157	0.00803471		-0.453221	-0.0926745	-9.7566		
1093455418.142		0.592861	-2.54503	-132.707		-0.00729525	-0.00274375	0.017026		-0.431074	-0.111265	-9.7719		
1093455418.246		0.564466	-2.56395	-132.669		-0.018209	-0.00817468	0.0137701		-0.423008	-0.0903751	-9.76405		
1093455418.342		0.565717	-2.5949	-132.742		-0.00420254	-0.00695697	0.000257974		-0.432705	-0.213802	-9.74414		
1093455418.447		0.566729	-2.59768	-132.913		-0.0018596	-0.00793504	-0.00914152		-0.411587	-0.0745529	-9.75298		
1093455418.542		0.578328	-2.62108	-132.929		0.00578504	0.00307197	-0.00234855		-0.479396	-0.0779981	-9.75719		
1093455418.646		0.580998	-2.61548	-133.085		0.0042493	-0.00280033	-0.00607467		-0.440165	-0.0654314	-9.77638		
1093455418.742		0.555622	-2.61483	-133.184		-0.00426442	0.0107991	-0.00614187		-0.465738	-0.0677303	-9.78585		
1093455418.844		0.556351	-2.60748	-133.211		-0.000172124	0.0111906	-0.00370894		-0.44752	-0.0829998	-9.7804		
1093455418.942		0.561085	-2.58899	-133.346		-0.00377711	0.00510961	-0.00251745		-0.48164	-0.10234	-9.76393		
1093455419.048		0.518045	-2.57876	-133.426		-0.00133967	0.00508004	-0.00753971		-0.453807	-0.0858595	-9.76446		
1093455419.142		0.471769	-2.56963	-133.416		0.0024471	0.000869648	0.00289546		-0.4339	-0.0790174	-9.77179		
1093455419.247		0.441657	-2.52276	-133.494		-0.01115	0.00865109	0.00296435		-0.440148	-0.0677189	-9.76908		
1093455419.342		0.395376	-2.50787	-133.521		-0.00434585	0.00527657	-0.00549765		-0.415191	-0.0653052	-9.80389		
1093455419.442		0.351072	-2.46261	-133.519		-0.00613841	0.0126292	0.0060328		-0.429901	-0.0586469	-9.77045		
1093455419.542		0.304199	-2.44251	-133.641		-0.00435444	0.00754524	0.00581029		-0.445286	-0.0461878	-9.78035		
1093455419.643		0.270867	-2.42752	-133.657		-0.00426079	0.0195876	0.0145577		-0.413956	-0.0325875	-9.77328		
1093455419.742		0.257333	-2.42102	-133.649		0.00323855	0.00319517	0.00555456		-0.406495	-0.0405307	-9.77293		
1093455419.845		0.250924	-2.40491	-133.773		-0.0019883	0.00820504	-0.00551338		-0.395153	-0.0381966	-9.78951		
1093455419.942		0.278558	-2.40988	-133.788		0.0055171	0.00350347	0.00063589		-0.419604	-0.0450558	-9.77892		
1093455420.051		0.285402	-2.44315	-133.833		-0.0140512	0.00127821	0.00212537		-0.407729	-0.0563171	-9.78113		
1093455420.142		0.313207	-2.47029	-133.968		0.0106437	-0.00770432	0.00178704		-0.424755	-0.0479103	-9.76407		
1093455420.245		0.360537	-2.49258	-133.953		0.0161051	-0.000405345	0.0082631		-0.431501	-0.0508079	-9.75561		
1093455420.342		0.415891	-2.49258	-134.039		0.0112352	0.00597298	0.00988804		-0.420161	-0.0552653	-9.77167		
1093455420.445		0.447539	-2.5092	-134.163		-0.0008636	0.00540631	-0.00210545		-0.438388	-0.0711282	-9.77335		
1093455420.542		0.484842	-2.52003	-134.168		0.00616783	-0.00751903	0.00949044		-0.446424	-0.0812972	-9.77213		
1093455420.642		0.525495	-2.54152	-134.276		0.0162027	-0.00530825	-0.00133462		-0.439575	-0.0796131	-9.76519		
1093455420.742		0.573307	-2.57995	-134.398		0.0101803	-0.00251187	-0.00247758		-0.435033	-0.0835566	-9.76847		
1093455420.845		0.605187	-2.59842	-134.421		0.0129138	-0.00368519	-0.0139059		-0.449834	-0.081875	-9.76996		
1093455420.942		0.632019	-2.60222	-134.548		0.0127598	0.00367632	-0.00697089		-0.43611	-0.0632524	-9.74924		
1093455421.045		0.664928	-2.57778	-134.66		0.0178179	0.0114446	-0.00507602		-0.424841	-0.0925326	-9.7874		
1093455421.142		0.656059	-2.57966	-134.666		-0.00259858	0.0019672	0.00356103		-0.446475	-0.0846287	-9.79128		
1093455421.247		0.652598	-2.5767	-134.766		0.00688409	-0.000736599	0.00724678		-0.392364	-0.103856	-9.77143		
1093455421.342		0.661067	-2.60624	-134.819		0.000328104	-0.00490021	-0.00200118		-0.449279	-0.147541	-9.76017		
1093455421.446		0.641547	-2.60154	-134.85		-0.011318	-0.00311974	0.00723197		-0.436214	-0.135597	-9.77328		
1093455421.542		0.630084	-2.62663	-134.996		0.00194255	0.00456471	-0.000302222		-0.463512	-0.12887	-9.76607		
1093455421.646		0.596389	-2.64535	-135.052		0.00129907	-0.00053091	0.00556816		-0.453298	-0.115225	-9.78149		
1093455421.742		0.583592	-2.65146	-135.098		0.00227927	-0.00197087	-0.00233489		-0.462296	-0.0994705	-9.76792		
1093455421.845		0.537337	-2.64396	-135.233		-0.00628699	0.00720405	-0.00250472		-0.461146	-0.0904236	-9.76559		
1093455421.942		0.498975	-2.64173	-135.256		0.00104659	0.00959903	-0.00552866		-0.443526	-0.0875359	-9.77582		
1093455422.047		0.462	-2.59446	-135.275		-0.000370772	0.0155118	0.00845734		-0.441892	-0.0778665	-9.781		
1093455422.142		0.431829	-2.56923	-135.373		-0.00418387	0.00484012	0.0123167		-0.464606	-0.0779674	-9.76019		
1093455422.247		0.378528	-2.51771	-135.328		-0.00957839	0.0136283	0.00573017		-0.424817	-0.0523603	-9.78718		
1093455422.342		0.362597	-2.49273	-135.353		-0.010809	0.00408496	-0.00610511		-0.406029	-0.174084	-9.75696		
1093455422.449		0.359828	-2.51752	-135.552		0.00160859	-0.0019209	0.00289961		-0.428177	-0.0705564	-9.76147		
1093455422.542		0.361876	-2.54229	-135.614		-0.000671144	0.00262609	-0.00722703		-0.434881	-0.0270747	-9.74768		
1093455422.645		0.3463	-2.55254	-135.698		0.000924633	-0.0043796	0.00577939		-0.416709	-0.0502114	-9.75861		
1093455422.742		0.347046	-2.56245	-135.822		-0.00408074	0.00125756	0.00954245		-0.495351	-0.0621431	-9.76764		
1093455422.846		0.320344	-2.57508	-135.822		-0.000151962	0.00404389	0.0108028		-0.446948	-0.0485147	-9.76183		
1093455422.943		0.348387	-2.58883	-135.878		-0.00985743	0.00247274	0.00189087		-0.422567	-0.163308	-9.77196		
1093455423.045		0.372661	-2.59372	-136.069		0.00487072	0.00207136	-0.000317081		-0.420184	-0.0496259	-9.75664		
1093455423.143		0.368116	-2.60095	-136.12		0.00988414	-0.000511415	-0.00567636		-0.461231	-0.0643202	-9.77917		
1093455423.245		0.400841	-2.61178	-136.23		0.000202024	0.0053826	-0.00957436		-0.442433	-0.0535544	-9.77581		
1093455423.344		0.41251	-2.61422	-136.38		0.0080483	-0.00250135	-0.00694727		-0.41565	-0.0224146	-9.77045		
1093455423.447		0.44696	-2.62095	-136.413		0.00984148	-0.00470009	-0.00460948		-0.462964	-0.0778795	-9.78604		
1093455423.542		0.468255	-2.62123	-136.539		0.00216755	0.00297654	-0.00350373		-0.402014	-0.0614353	-9.77088		
1093455423.648		0.51912	-2.64587	-136.655		-0.0046625	-0.0124829	0.00261095		-0.428785	-0.0937235	-9.77118		
1093455423.743		0.542569	-2.62558	-136.622		0.0120609	0.0083457	0.000500202		-0.433947	-0.0919807	-9.78706		
1093455423.846		0.543044	-2.61918	-136.722		0.00331028	0.00445895	0.00225113		-0.447588	-0.0948557	-9.77898		
1093455423.942		0.535733	-2.59659	-136.795		-0.0058654	0.0128728	-0.0149841		-0.449308	-0.107866	-9.78079		
1093455424.045		0.52838	-2.58672	-136.755		0.00224256	0.0112244	0.00844402		-0.440735	-0.071094	-9.7753		
1093455424.142		0.487315	-2.55745	-136.842		0.000307084	0.000287518	-0.00413448		-0.417422	-0.0404537	-9.79143		
1093455424.243		0.475769	-2.53151	-136.845		0.00486443	0.0102092	0.0165382		-0.432783	-0.0784222	-9.7802		
1093455424.343		0.45924	-2.52761	-136.799		-0.00136631	0.00623377	0.0125159		-0.426508	-0.0767333	-9.77497		
1093455424.449		0.458484	-2.52624	-136.873		0.000614369	-0.000439921	0.00983872		-0.433826	-0.0655238	-9.74582		
1093455424.543		0.442425	-2.52486	-136.884		-0.00803646	0.00606248	0.000814995		-0.405419	-0.0976924	-9.75878		
1093455424.643		0.436494	-2.52986	-136.91		-0.00221514	-0.00311832	0.00441238		-0.423644	-0.105065	-9.76154		
1093455424.743		0.413291	-2.54017	-137.07		0.000988821	-0.00291105	-8.42603e-05		-0.449765	-0.0870604	-9.74184		
1093455424.846		0.389969	-2.55448	-137.096		0.0027	0.0036862	-0.009267		-0.429327	-0.0688437	-9.76655		
1093455424.943		0.382954	-2.54036	-137.134		-0.00704302	0.0122447	-0.000469981		-0.43158	-0.059818	-9.75924		
1093455425.043		0.375848	-2.52199	-137.269		0.00430466	0.00327701	-0.00468797		-0.437276	-0.0660494	-9.75942		
1093455425.143		0.388554	-2.50767	-137.276		0.00942704	0.0103511	-0.00450029		-0.424751	-0.0598071	-9.75963		
1093455425.245		0.416185	-2.50413	-137.343		-0.00315576	0.00625156	0.00452407		-0.427077	-0.0823958	-9.77389		
1093455425.343		0.445635	-2.50572	-137.454		0.000439054	0.00765318	0.000772234		-0.420786	-0.0756314	-9.76356		
1093455425.446		0.438414	-2.52693	-137.466		-0.000930762	-0.00633026	0.0146469		-0.427063	-0.0654272	-9.77211		
1093455425.543		0.500108	-2.52503	-137.495		-0.000308374	-0.00609648	-0.00178464		-0.444196	-0.0953872	-9.78791		
1093455425.647		0.494389	-2.5471	-137.585		0.00478572	-0.00570792	0.00181668		-0.43275	-0.0745007	-9.76836		
1093455425.743		0.486419	-2.54661	-137.569		0.00455389	0.00327328	-0.00298239		-0.428186	-0.0903633	-9.76045		
1093455425.847		0.499432	-2.53464	-137.645		0.0069112	0.00138142	-0.00448783		-0.435062	-0.0778556	-9.78139		
1093455425.943		0.51692	-2.51923	-137.766		-0.00256943	0.00277205	4.05477e-05		-0.437327	-0.0829714	-9.77528		
1093455426.043		0.51019	-2.4904	-137.751		-0.000193454	0.013833	0.000988957		-0.426004	-0.0755152	-9.80084		
1093455426.144		0.493414	-2.47269	-137.775		-0.00557873	0.00466287	0.00218935		-0.42485	-0.0823294	-9.79297		
1093455426.248		0.50386	-2.46862	-137.859		0.00445985	0.0044408	0.0105662		-0.419112	-0.0880433	-9.77371		
1093455426.343		0.497658	-2.46673	-137.843		0.00813172	0.0055535	0.00201346		-0.415731	-0.0925243	-9.78604		
1093455426.444		0.487738	-2.48932	-137.909		-1.10057e-05	0.00157152	0.00152108		-0.42022	-0.0801571	-9.76357		
1093455426.543		0.462877	-2.5114	-138.003		0.000125624	-0.0041257	0.00888099		-0.431055	-0.0750493	-9.77282		
1093455426.643		0.430854	-2.51131	-137.983		-0.00102088	-0.00510996	0.00323284		-0.438404	-0.0813538	-9.75165		
1093455426.743		0.408425	-2.50197	-138.036		-0.00833245	0.00846164	-0.00238377		-0.428771	-0.064296	-9.77271		
1093455426.843		0.403039	-2.50776	-138.137		0.00589225	0.00117241	0.0003178		-0.424771	-0.0643112	-9.76641		
1093455426.943		0.387235	-2.50621	-138.143		0.000687389	-0.00231217	-0.000402754		-0.419091	-0.043903	-9.77573		
1093455427.048		0.384721	-2.5327	-138.242		0.00531782	-0.000847016	0.0126953		-0.430448	-0.0564105	-9.76257		
1093455427.143		0.399198	-2.5422	-138.311		0.00625996	-0.00311659	0.00159595		-0.415666	-0.0688256	-9.7662		
1093455427.246		0.392334	-2.56789	-138.305		0.0102878	0.00524529	0.00584295		-0.435537	-0.0666539	-9.747		
1093455427.343		0.400299	-2.57271	-138.404		0.00173648	-0.00133914	0.0105798		-0.469729	-0.0745756	-9.76143		
1093455427.448		0.425972	-2.5763	-138.492		0.00708745	0.00924206	0.00201883		-0.463468	-0.0768324	-9.76071		
1093455427.543		0.453557	-2.58128	-138.488		0.00911143	0.00874472	0.0010485		-0.444721	-0.0790243	-9.77432		
1093455427.646		0.472858	-2.56024	-138.618		0.00353103	0.0124217	0.00758412		-0.444722	-0.0710955	-9.77653		
1093455427.743		0.502607	-2.53606	-138.718		0.00995022	0.009659	-0.00727657		-0.440145	-0.0796139	-9.7652		
1093455427.843		0.53961	-2.51482	-138.728		0.00616235	-0.00590118	-0.0013906		-0.440803	-0.0891253	-9.79792		
1093455427.943		0.54959	-2.50029	-138.893		0.0015233	0.00316944	-0.000300144		-0.461253	-0.0722191	-9.78596		
1093455428.043		0.556275	-2.4721	-138.951		-0.00612909	0.00823821	0.00848621		-0.450987	-0.106206	-9.77013		
1093455428.143		0.556134	-2.47703	-138.955		-0.00216659	0.00457186	0.0157163		-0.419616	-0.0982676	-9.77133		
1093455428.306		0.521035	-2.48822	-139.039		-0.00901296	-0.000194182	0.00860332		-0.425875	-0.0778939	-9.77532		
1093455428.343		0.515306	-2.4894	-139.059		-0.0023588	0.00300148	0.00419602		-0.440657	-0.113044	-9.76069		
1093455428.445		0.499092	-2.48311	-139.081		0.00357223	-0.0032544	-0.0268734		-0.404891	-0.0868799	-9.77728		
1093455428.543		0.491833	-2.50485	-139.219		-0.00721249	-0.000734005	0.00934485		-0.42879	-0.0948495	-9.77287		
1093455428.647		0.477802	-2.52134	-139.27		-0.00531465	0.00385089	0.00901537		-0.411195	-0.0913624	-9.79323		
1093455428.743		0.461363	-2.53332	-139.315		-0.00726903	-0.00548644	-0.00580322		-0.428214	-0.0931588	-9.7706		
1093455428.849		0.435906	-2.54083	-139.454		0.00812436	0.00368265	-0.00886768		-0.411133	-0.0755888	-9.77232		
1093455428.943		0.412796	-2.56252	-139.456		-0.00563677	-0.00798142	-0.00474476		-0.447555	-0.0246845	-9.78198		
1093455429.043		0.387461	-2.5742	-139.488		-0.00955513	-0.00910776	0.0103165		-0.437855	-0.0767967	-9.76062		
1093455429.143		0.360899	-2.6254	-139.603		-0.00559686	-0.00729318	-0.000264478		-0.442455	-0.0688144	-9.78096		
1093455429.246		0.352432	-2.65989	-139.603		0.00329737	-0.00451243	0.0024643		-0.44867	-0.0779426	-9.76091		
1093455429.343		0.349215	-2.69792	-139.661		-0.00561967	0.00287231	0.000482666		-0.453241	-0.0801914	-9.76723		
1093455429.444		0.370521	-2.70421	-139.742		0.00596855	-0.000511985	-0.00448313		-0.455503	-0.0745512	-9.76275		
1093455429.543		0.390434	-2.70286	-139.734		0.00658321	-0.0015156	-0.00139261		-0.460086	-0.0586644	-9.77798		
1093455429.648		0.392323	-2.71067	-139.813		-0.00567263	0.00128044	-0.000903921		-0.448645	-0.0541937	-9.75627		
1093455429.743		0.410215	-2.70734	-139.906		0.00828176	0.0022492	0.00905333		-0.464643	-0.0631968	-9.77812		
1093455429.887		0.424827	-2.71506	-139.902		-0.000379498	-0.00311019	0.000136		-0.453251	-0.0654562	-9.77446		
1093455429.943		0.444187	-2.71577	-139.972		0.0134296	0.00765947	-0.00526732		-0.478315	-0.0983079	-9.77472		
1093455430.049		0.482599	-2.70969	-140.071		0.00963984	0.0102457	-0.00183442		-0.446411	-0.0728213	-9.7687		
1093455430.143		0.496436	-2.69147	-140.088		0.00587409	-0.00093343	0.00629178		-0.487397	-0.0587154	-9.77418		
1093455430.245		0.495323	-2.68279	-140.193		0.0124361	0.00286102	0.00156493		-0.447561	-0.0694093	-9.77434		
1093455430.343		0.48132	-2.65873	-140.235		-0.0153589	0.0102408	0.00639933		-0.465814	-0.0790111	-9.78724		
1093455430.445		0.493228	-2.64062	-140.262		-0.00028976	0.00596512	-0.00210443		-0.44758	-0.0744811	-9.78056		
1093455430.543		0.492771	-2.58634	-140.358		0.00211354	0.00854945	0.000763802		-0.449834	-0.0841401	-9.76941		
1093455430.643		0.501865	-2.56867	-140.456		-0.000147653	0.0096434	0.0024821		-0.44189	-0.0801335	-9.77988		
1093455430.743		0.481385	-2.52385	-140.45		-0.0035527	0.00637015	-0.00432817		-0.444131	-0.067726	-9.76861		
1093455430.901		0.466853	-2.49941	-140.573		0.00313389	0.00545762	0.00139863		-0.4248	-0.066539	-9.77712		
1093455430.943		0.441619	-2.47323	-140.629		0.00167436	0.001759	0.00673978		-0.438437	-0.0609251	-9.76956		
1093455431.048		0.425414	-2.47158	-140.626		-0.00744569	0.00302902	0.0210807		-0.416844	-0.0676433	-9.78199		
1093455431.143		0.413777	-2.47709	-140.752		-0.00302672	-0.000923672	0.00377647		-0.419088	-0.0954361	-9.7625		
1093455431.246		0.417944	-2.48981	-140.82		-0.0075464	0.00308186	-0.00388138		-0.42472	-0.0830629	-9.74231		
1093455431.343		0.414426	-2.49029	-140.827		0.00067395	0.00435357	0.00557145		-0.417367	-0.0648728	-9.76454		
1093455431.447		0.398351	-2.51599	-140.955		0.00498359	0.00316234	0.00224264		-0.42304	-0.0643388	-9.75736		
1093455431.543		0.389842	-2.5114	-141.051		-0.00608067	0.00408378	-0.00666237		-0.419045	-0.0586848	-9.75441		
1093455431.646		0.399571	-2.50847	-141.07		0.00238145	0.00339382	0.00609228		-0.421286	-0.0637781	-9.76443		
1093455431.743		0.3945	-2.52746	-141.243		0.00835542	-0.00316365	-0.00535258		-0.432649	-0.039471	-9.76233		
1093455431.843		0.394503	-2.58773	-141.295		0.00507945	-0.000508618	-0.00586545		-0.448691	-0.0496039	-9.77539		
1093455431.943		0.38394	-2.61092	-141.288		-0.00032102	0.00364752	0.00973688		-0.461183	-0.0564548	-9.76223		
1093455432.046		0.386961	-2.64218	-141.389		-4.43993e-05	-0.00631626	0.00781501		-0.449809	-0.0598234	-9.76534		
1093455432.143		0.41868	-2.65409	-141.394		-0.00289569	0.0014816	-0.00241143		-0.424853	-0.162166	-9.77595		
1093455432.248		0.471845	-2.6636	-141.542		0.00176521	0.00728698	-0.0149161		-0.478203	-0.0588151	-9.74016		
1093455432.343		0.503032	-2.67708	-141.737		0.0111613	-0.00371208	-0.000775724		-0.478322	-0.0886724	-9.77974		
1093455432.448		0.518631	-2.68414	-141.789		0.00403466	-0.00529238	-0.00596698		-0.480632	-0.0869333	-9.7933		
1093455432.543		0.540648	-2.65236	-141.887		0.00600545	0.00127835	-0.00266974		-0.470369	-0.0914723	-9.78518		
1093455432.643		0.552782	-2.63301	-142.018		-0.00423808	0.00199913	-0.0111522		-0.451007	-0.0869277	-9.78241		
1093455432.743		0.569046	-2.61326	-142.075		0.0163447	0.00327158	-0.00496214		-0.448728	-0.0925903	-9.78013		
1093455432.847		0.578724	-2.59478	-142.178		0.00467828	0.00326848	-0.000742786		-0.440762	-0.0880458	-9.78215		
1093455432.943		0.586892	-2.56119	-142.302		0.0055957	0.0159428	-0.0082145		-0.463538	-0.0903317	-9.785		
1093455433.046		0.548256	-2.54131	-142.297		0.00570309	0.00686673	-0.00565503		-0.450415	-0.0756314	-9.77614		
1093455433.143		0.503582	-2.52117	-142.351		0.00309122	0.00716139	-0.00297489		-0.458387	-0.0586509	-9.78131		
1093455433.247		0.467414	-2.51055	-142.454		-0.000888756	0.00844718	0.00269916		-0.433957	-0.0630891	-9.7976		
1093455433.343		0.449856	-2.48233	-142.431		7.12645e-05	0.0110635	0.00919782		-0.437215	-0.0734365	-9.75926		
1093455433.447		0.425295	-2.48136	-142.493		-0.0103081	0.00119967	0.00967667		-0.415628	-0.0688219	-9.77669		
1093455433.543		0.427012	-2.4851	-142.559		0.00926744	0.00508384	0.00659094		-0.437207	-0.0938316	-9.75149		
1093455433.647		0.413655	-2.48677	-142.558		-0.00709761	-0.000704285	-0.00473718		-0.400788	-0.0700402	-9.73487		
1093455433.743		0.404517	-2.49172	-142.644		-0.000214767	0.00426312	0.00141551		-0.401999	-0.0608882	-9.76525		
1093455433.843		0.433117	-2.50135	-142.752		0.00459726	0.00638309	-0.0123702		-0.427044	-0.0801736	-9.76149		
1093455433.943		0.441982	-2.49652	-142.756		-0.000568736	0.00565066	0.00525773		-0.437293	-0.0767867	-9.76342		
1093455434.046		0.452966	-2.49681	-142.89		0.00244769	0.00627544	-0.00809219		-0.411064	-0.068883	-9.74695		
1093455434.143		0.473476	-2.51584	-142.957		0.0060989	-0.0051827	0.00724672		-0.438334	-0.0644038	-9.75361		
1093455434.247		0.489571	-2.53291	-142.964		0.00459646	-0.00574123	-0.0110943		-0.436117	-0.0881049	-9.77169		
1093455434.343		0.50212	-2.55689	-143.103		0.00452474	0.00283261	-0.0118404		-0.43617	-0.0993614	-9.78977		
1093455434.446		0.53138	-2.57662	-143.232		0.0137174	0.00022411	-0.00601963		-0.440634	-0.0949528	-9.75608		
1093455434.543		0.549278	-2.59661	-143.297		0.0028315	-0.00636686	0.00235602		-0.45657	-0.0474127	-9.76637		
1093455434.647		0.549506	-2.61026	-143.418		-0.00433127	0.00124369	0.0161577		-0.439723	-0.0907466	-9.82042		
1093455434.743		0.534766	-2.61753	-143.439		-0.00300658	0.00645332	0.00334987		-0.446491	-0.129908	-9.78703		
1093455434.847		0.514393	-2.6205	-143.418		-0.00491314	-0.000911247	-0.00165456		-0.458387	-0.0971556	-9.77252		
1093455434.943		0.509819	-2.60259	-143.504		-0.00404552	0.0066419	0.008689		-0.441864	-0.080167	-9.76975		
1093455435.047		0.488328	-2.60057	-143.507		0.00634464	0.00406463	-0.000537824		-0.437351	-0.0857706	-9.7843		
1093455435.143		0.482377	-2.5904	-143.544		0.0158736	-0.00183202	0.00464109		-0.440762	-0.102768	-9.77885		
1093455435.246		0.479981	-2.59307	-143.683		6.24739e-05	0.00886347	-0.00583984		-0.44532	-0.0903113	-9.7834		
1093455435.343		0.480003	-2.58335	-143.726		0.00342089	0.0064644	-0.00340329		-0.443044	-0.0914399	-9.78335		
1093455435.447		0.468738	-2.58798	-143.804		-0.00879871	-0.00598769	-0.00408867		-0.433306	-0.0801818	-9.76165		
1093455435.543		0.459648	-2.58047	-143.954		0.00343937	0.00327585	-0.00393686		-0.433828	-0.0734488	-9.74474		
1093455435.647		0.437671	-2.58725	-144.001		-0.0131438	0.0103637	-0.00513304		-0.444735	-0.0835358	-9.77885		
1093455435.743		0.40179	-2.58976	-144.087		-0.00425253	8.70059e-05	-0.00251129		-0.418546	-0.0608578	-9.78143		
1093455435.848		0.398853	-2.56481	-144.191		0.00954245	0.00706827	-0.00759462		-0.435012	-0.045078	-9.76938		
1093455435.943		0.373762	-2.56467	-144.167		0.00197412	-0.00113832	0.00983183		-0.422511	-0.046167	-9.77695		
1093455436.046		0.351196	-2.55257	-144.284		-0.00967146	0.00426548	0.00253004		-0.436083	-0.0463006	-9.7424		
1093455436.143		0.352218	-2.55251	-144.349		0.0051226	0.00378559	-0.00970594		-0.442963	-0.0819181	-9.75403		
1093455436.248		0.386878	-2.54238	-144.377		0.00304167	0.00947452	-0.0126822		-0.422509	-0.0727822	-9.77034		
1093455436.343		0.396352	-2.53033	-144.522		0.00929663	-1.63519e-05	-0.00396653		-0.433859	-0.0224461	-9.76867		
1093455436.449		0.410804	-2.5328	-144.528		0.00389316	0.00207567	-0.00212566		-0.431601	-0.0711155	-9.76493		
1093455436.543		0.43395	-2.50874	-144.503		0.0112964	0.00707278	0.00828759		-0.432718	-0.0665626	-9.78275		
1093455436.644		0.423354	-2.51542	-144.583		0.000382202	0.00399804	0.00364881		-0.421862	-0.0518783	-9.77		
1093455436.743		0.432173	-2.524	-144.544		0.00575042	0.00399723	0.00276828		-0.42248	-0.0948505	-9.77926		
1093455436.846		0.452771	-2.52532	-144.603		0.00431453	-0.000117206	-0.00223453		-0.441864	-0.0886616	-9.76754		
1093455436.943		0.456574	-2.54361	-144.705		0.00594158	4.36826e-05	0.0155724		-0.444769	-0.0823595	-9.79235		
1093455437.043		0.481414	-2.56734	-144.713		0.00162455	-0.00390182	-0.00307447		-0.450989	-0.0858185	-9.77564		
1093455437.143		0.509148	-2.57102	-144.745		0.00410817	0.00526545	-0.00223334		-0.442441	-0.102242	-9.76763		
1093455437.246		0.507673	-2.55872	-144.882		-0.00111933	0.00476985	-0.00231363		-0.441901	-0.0954084	-9.78053		
1093455437.343		0.525079	-2.55094	-144.912		0.00640284	0.00389186	-0.0131261		-0.425974	-0.0636631	-9.79177		
1093455437.447		0.539145	-2.55702	-145.038		0.00775163	0.00345099	0.00649578		-0.433986	-0.101557	-9.80006		
1093455437.543		0.531256	-2.56317	-145.139		0.00179349	-0.0021217	0.00353874		-0.422565	-0.0596867	-9.79504		
1093455437.647		0.511033	-2.55974	-145.112		-0.00373907	0.00704588	0.0061272		-0.437252	-0.0723087	-9.74876		
1093455437.743		0.466359	-2.54993	-145.134		-0.0142922	0.00306485	0.00575368		-0.419682	-0.199028	-9.74844		
1093455437.847		0.487724	-2.56077	-145.286		-0.00636191	0.000738612	-0.00890518		-0.424659	-0.0711977	-9.74654		
1093455437.943		0.487158	-2.54512	-145.334		-0.00418789	0.00282942	-0.00827604		-0.461154	-0.0830532	-9.77005		
1093455438.046		0.476678	-2.52257	-145.476		0.00241004	0.00388118	-0.00713197		-0.415083	-0.0745053	-9.75946		
1093455438.145		0.465656	-2.5258	-145.583		0.0117324	-0.00549797	-0.00483241		-0.447519	-0.0281278	-9.76736		
1093455438.248		0.442282	-2.5054	-145.58		-7.78097e-05	0.00347331	-0.00221225		-0.413971	-0.072771	-9.77012		
1093455438.343		0.421187	-2.50354	-145.687		-0.0114823	0.00367237	0.000618975		-0.412264	-0.0591782	-9.77338		
1093455438.448		0.40042	-2.52017	-145.753		-0.00671388	-0.00123399	0.00998239		-0.420243	-0.0665367	-9.77588		
1093455438.543		0.369638	-2.53444	-145.743		0.00302467	-0.00548921	-0.00692198		-0.432752	-0.0869559	-9.76618		
1093455438.644		0.368309	-2.55512	-145.846		-0.00335271	-0.00171574	0.00132451		-0.450967	-0.0779196	-9.76884		
1093455438.743		0.358656	-2.55655	-145.901		0.00154741	0.0120301	0.00471383		-0.465765	-0.0700141	-9.77031		
1093455438.847		0.359006	-2.55221	-145.892		0.00144231	0.00524059	0.0101547		-0.465799	-0.0688378	-9.78381		
1093455438.944		0.369156	-2.55271	-145.96		-0.00167541	-0.00311181	0.00120932		-0.433907	-0.0993939	-9.76965		
1093455439.047		0.394527	-2.55	-145.937		-0.0115964	0.00345502	0.00915376		-0.440764	-0.0721883	-9.78657		
1093455439.143		0.402674	-2.53777	-146.012		-0.00554388	0.00266548	0.00400264		-0.417428	-0.0823476	-9.78434		
1093455439.246		0.417542	-2.52224	-146.112		0.00440389	0.00236791	0.000965417		-0.429329	-0.0779022	-9.76491		
1093455439.344		0.429433	-2.52819	-146.134		-4.8267e-05	-0.00249966	-0.0058396		-0.443007	-0.082428	-9.77092		
1093455439.444		0.443401	-2.52466	-146.234		0.00323928	0.00447839	-0.00692279		-0.445268	-0.100005	-9.76094		
1093455439.544		0.415519	-2.53727	-146.363		-0.00474179	-0.000538112	0.0103992		-0.451018	-0.0857812	-9.7869		
1093455439.648		0.392581	-2.54476	-146.377		-0.00609734	0.00556044	0.00208532		-0.428238	-0.0614177	-9.78731		
1093455439.743		0.431485	-2.543	-146.501		0.00646397	0.00726664	-0.00640561		-0.433943	-0.187682	-9.76338		
1093455439.844		0.461166	-2.54095	-146.606		0.0015905	0.00469163	-0.0131018		-0.412231	-0.046764	-9.76318		
1093455439.943		0.466975	-2.56002	-146.679		0.0116558	0.00509828	-0.0192332		-0.420135	-0.0355329	-9.7408		
1093455440.046		0.468448	-2.58215	-146.799		0.0134325	-0.00526205	-0.00409815		-0.416728	-0.0496214	-9.76592		
1093455440.144		0.471058	-2.61907	-146.829		0.00330608	-0.00567792	0.00640739		-0.444075	-0.0405654	-9.77839		
1093455440.246		0.483779	-2.64344	-146.843		0.0100491	-0.00689895	-0.00183697		-0.433913	-0.0620134	-9.78071		
1093455440.343		0.496752	-2.64471	-146.954		0.00494274	0.00825513	-0.00213079		-0.465776	-0.212694	-9.74181		
1093455440.446		0.544936	-2.66031	-147.068		0.00986994	-0.000881694	-0.0191177		-0.450931	-0.0938218	-9.75092		
1093455440.544		0.535526	-2.661	-147.171		0.00634863	0.00827452	-0.0116322		-0.502218	-0.0915498	-9.7753		
1093455440.647		0.536824	-2.64316	-147.328		9.16652e-05	0.0062502	0.00440099		-0.459567	-0.0801158	-9.79272		
1093455440.760		0.518518	-2.61715	-147.387		-0.00100034	0.0116957	-0.00669172		-0.45656	-0.0553526	-9.76078		
1093455440.846		0.501128	-2.58651	-147.429		-0.00158803	0.00194188	-0.0134097		-0.462319	-0.0705623	-9.78353		
1093455440.944		0.474647	-2.54482	-147.54		-0.000322933	0.0103732	0.00578611		-0.437262	-0.0892306	-9.77398		
1093455441.048		0.446029	-2.52339	-147.545		-0.00649749	0.0112314	0.00720803		-0.455536	-0.0971593	-9.77019		
1093455441.144		0.45638	-2.5113	-147.569		-0.00993739	0.0040631	0.00402487		-0.402078	-0.115146	-9.78356		
1093455441.249		0.460226	-2.47483	-147.687		-0.00114073	0.0112071	-0.0112782		-0.424766	-0.0948423	-9.7827		
1093455441.344		0.456503	-2.45685	-147.689		-0.00868432	0.00820831	-0.00547956		-0.406546	-0.0965231	-9.77999		
1093455441.446		0.435272	-2.43202	-147.739		-0.00576114	0.0130789	0.000266409		-0.4185	-0.0733222	-9.7858		
1093455441.544		0.422862	-2.41705	-147.859		0.000372655	0.00119405	-0.00861525		-0.370152	-0.0466524	-9.77899		
1093455441.647		0.412225	-2.40203	-147.86		-0.000277006	0.00874501	0.00312279		-0.411173	-0.0568501	-9.79248		
1093455441.744		0.386366	-2.39347	-147.926		-0.0100676	0.00246111	0.00743917		-0.414597	-0.077795	-9.79099		
1093455441.847		0.36363	-2.40059	-147.99		-0.00407512	-0.00411869	0.0065553		-0.360964	-0.0592018	-9.74448		
1093455441.944		0.345704	-2.4139	-147.963		-0.00940312	0.00385243	0.00924937		-0.399775	-0.172933	-9.76017		
1093455442.049		0.335773	-2.44931	-148.123		-0.00776958	-0.01252	-0.00783167		-0.412139	-0.0496601	-9.75229		
1093455442.140		0.330886	-2.49877	-148.286		0.00100245	0.000244753	-0.0127828		-0.429241	-0.0507826	-9.76231		
1093455442.247		0.350524	-2.51342	-148.336		0.00267325	-0.00337462	-0.0169478		-0.411132	-0.0410485	-9.78001		
1093455442.344		0.349695	-2.51569	-148.457		0.0120349	0.00268036	-0.00718062		-0.396265	-0.00147843	-9.76253		
1093455442.448		0.343454	-2.53225	-148.54		-0.00654094	-0.00192798	0.00816798		-0.411114	-0.0393735	-9.77324		
1093455442.544		0.375136	-2.55064	-148.54		0.0161471	0.00247494	-0.00528119		-0.427086	-0.0636981	-9.78167		
1093455442.648		0.416599	-2.5701	-148.625		0.00817468	-0.00471055	0.000732818		-0.44585	-0.0722435	-9.77206		
1093455442.744		0.443535	-2.6118	-148.701		0.0114732	-0.00492595	0.00754352		-0.438403	-0.0711618	-9.75385		
1093455442.845		0.440413	-2.65717	-148.678		-0.000741876	-0.00152962	0.00696524		-0.436692	-0.0604055	-9.75487		
1093455442.944		0.469126	-2.69077	-148.786		0.0116936	-0.000827119	0.00178193		-0.46462	-0.101731	-9.76032		
1093455443.040		0.498212	-2.7359	-148.878		7.88323e-05	-0.0105244	-0.0106449		-0.474724	-0.084888	-9.73438		
1093455443.144		0.549556	-2.78008	-148.928		0.0139307	-0.00636009	-0.00346063		-0.478231	-0.0949652	-9.7683		
1093455443.243		0.576807	-2.80878	-149.076		0.00591687	0.00187149	-0.00032237		-0.482893	-0.107343	-9.78221		
1093455443.344		0.61624	-2.82271	-149.149		0.00218938	-0.00150759	-0.00414403		-0.469808	-0.0937255	-9.78799		
1093455443.443		0.652279	-2.83108	-149.158		0.00644691	-0.00111276	-0.00331211		-0.467499	-0.0999929	-9.77389		
1093455443.544		0.645839	-2.84385	-149.249		-0.00140694	-0.0040048	0.0176324		-0.486199	-0.0983742	-9.7674		
1093455443.643		0.641681	-2.85708	-149.288		-0.00852448	0.00220166	0.0067874		-0.485594	-0.0950234	-9.75386		
1093455443.740		0.631942	-2.88145	-149.306		0.00194598	-0.00568984	-0.00606312		-0.512491	-0.229693	-9.75436		
1093455443.843		0.665358	-2.87565	-149.56		0.00122391	0.0118654	-0.0116062		-0.482851	-0.105132	-9.76643		
1093455443.940		0.669191	-2.84627	-149.652		-0.000636219	0.00388199	-0.00679655		-0.519252	-0.0859646	-9.7605		
1093455444.043		0.649263	-2.8076	-149.718		0.000182797	0.00559257	-0.0145881		-0.467478	-0.0937914	-9.7671		
1093455444.140		0.629139	-2.75087	-149.877		0.000838377	0.0138551	-0.00968402		-0.472107	-0.108423	-9.7932		
1093455444.242		0.615673	-2.66598	-149.927		0.000694893	0.0175351	-0.0058428		-0.514207	-0.10964	-9.78527		
1093455444.340		0.570313	-2.60404	-149.978		2.3807e-05	0.0212092	0.00088139		-0.499994	-0.100538	-9.79387		
1093455444.445		0.520228	-2.54132	-150.084		-0.0114863	0.0112474	0.000832564		-0.430502	-0.0925811	-9.77516		
1093455444.540		0.462888	-2.46294	-150.078		-0.00442559	0.00726564	-0.00336364		-0.44475	-0.1073	-9.77898		
1093455444.640		0.429054	-2.40816	-150.094		-0.00819998	0.00335639	0.00785647		-0.407662	-0.0750893	-9.75083		
1093455444.740		0.377968	-2.35033	-150.213		-0.00580442	0.0100561	-0.00282321		-0.405416	-0.0682519	-9.76425		
1093455444.845		0.346173	-2.31861	-150.239		-0.00682812	0.0109258	0.01041		-0.393495	-0.0597005	-9.77853		
1093455444.940		0.291103	-2.30597	-150.282		-0.0034656	0.00625194	0.00441896		-0.387773	-0.0721892	-9.76382		
1093455445.040		0.259529	-2.30977	-150.419		-0.0155315	-0.000791725	-0.00853498		-0.401996	-0.0506999	-9.76632		
1093455445.140		0.241414	-2.3025	-150.434		-0.00129642	0.00605581	0.00238112		-0.396876	-0.0563512	-9.76622		
1093455445.246		0.234958	-2.31708	-150.442		-0.00993073	-0.00179394	-0.00728316		-0.390073	-0.0274283	-9.78334		
1093455445.340		0.242282	-2.33896	-150.557		0.00484802	-0.0100901	0.000109403		-0.400306	-0.0285902	-9.77854		
1093455445.444		0.236558	-2.37179	-150.596		-0.0026099	-0.0080713	-0.0100939		-0.409408	-0.0286097	-9.77652		
1093455445.540		0.252467	-2.41562	-150.606		0.00911285	-0.00713258	0.0145961		-0.406542	-0.0280662	-9.76856		
1093455445.643		0.283038	-2.4444	-150.731		0.0167012	-0.000906683	-0.00891113		-0.40142	-0.0161663	-9.77174		
1093455445.740		0.347722	-2.49079	-150.732		0.0108046	-0.0138402	-0.0191228		-0.412257	-0.052958	-9.77222		
1093455445.840		0.379532	-2.56185	-150.794		0.0129519	-0.0138615	-0.00953262		-0.412875	-0.0540289	-9.79082		
1093455445.940		0.451936	-2.65221	-150.948		0.0193185	-0.0095032	0.00195653		-0.447579	0.020647	-9.802		
1093455446.047		0.510346	-2.72894	-150.932		0.0198548	-0.0127098	0.00984788		-0.432835	-0.0596686	-9.80487		
1093455446.140		0.575893	-2.80342	-150.963		0.00948228	-0.00981502	0.0103271		-0.492006	-0.174164	-9.76929		
1093455446.245		0.677866	-2.87177	-151.151		0.0114134	-0.0138114	-0.0144359		-0.503917	-0.108496	-9.7938		
1093455446.340		0.716751	-2.93196	-151.211		0.0130801	-0.011526	-0.0114573		-0.510138	-0.122147	-9.7749		
1093455446.445		0.777229	-2.97689	-151.36		0.0122011	-0.0122557	-0.0145426		-0.511292	-0.122182	-9.75543		
1093455446.540		0.829341	-2.99924	-151.556		0.0140514	-0.00350466	-0.00527078		-0.550061	-0.105164	-9.78504		
1093455446.640		0.855764	-2.97919	-151.533		0.0122222	0.00844845	-0.000994096		-0.51362	-0.133444	-9.773		
1093455446.740		0.864441	-2.93505	-151.64		0.00671303	0.0128563	-0.0101404		-0.506762	-0.140265	-9.76048		
1093455446.843		0.863691	-2.8799	-151.735		-7.85482e-05	0.0128193	0.00898917		-0.489698	-0.14136	-9.76455		
1093455446.940		0.87692	-2.81238	-151.742		-0.00378465	0.0108427	0.00186043		-0.510136	-0.152781	-9.74149		
1093455447.040		0.863962	-2.7539	-151.807		-0.00246353	0.0126398	0.000146968		-0.450991	-0.154899	-9.76026		
1093455447.140		0.832004	-2.69655	-151.873		-0.00124934	0.00504999	0.00664796		-0.469152	-0.156126	-9.73934		
1093455447.242		0.798545	-2.66071	-151.851		-0.00575693	0.0133781	0.000159718		-0.462272	-0.144802	-9.7479		
1093455447.340		0.779597	-2.60562	-151.943		-0.00796421	0.0178581	0.00326464		-0.447493	-0.165706	-9.75101		
1093455447.443		0.778767	-2.52816	-152.01		0.0106711	0.011546	-0.0041865		-0.431642	-0.131085	-9.76695		
1093455447.540		0.750137	-2.48046	-151.999		0.00280946	0.0118655	-0.0120409		-0.419673	-0.123161	-9.76266		
1093455447.642		0.767477	-2.43544	-152.13		0.00896249	0.0224093	-0.00311079		-0.430514	-0.136733	-9.76977		
1093455447.740		0.754396	-2.41768	-152.197		-0.00754525	0.00844096	0.00721324		-0.41967	-0.108443	-9.76483		
1093455447.843		0.709945	-2.41863	-152.163		-0.00356532	-0.00314631	0.0179673		-0.415774	-0.120781	-9.79632		
1093455447.940		0.710067	-2.4127	-152.222		0.00158522	-0.00270206	-0.00478108		-0.43631	-0.280433	-9.77745		
1093455448.093		0.702871	-2.43274	-152.355		-0.0102127	-0.00169818	-0.00536154		-0.441911	-0.133334	-9.77567		
1093455448.140		0.660912	-2.44301	-152.423		-0.00386994	-0.002284	-0.0126477		-0.398605	-0.112951	-9.7615		
1093455448.244		0.614969	-2.45641	-152.574		-0.00935018	0.000595323	-0.00600589		-0.422571	-0.136689	-9.7797		
1093455448.340		0.568176	-2.4751	-152.655		-0.0190799	0.00387182	0.00236419		-0.439663	-0.108378	-9.79293		
1093455448.444		0.516499	-2.49103	-152.668		-0.0104084	-0.00668104	-0.0057874		-0.429443	-0.106066	-9.80335		
1093455448.540		0.452344	-2.4971	-152.751		-0.0170413	0.00964307	0.00662117		-0.426568	-0.117425	-9.78926		
1093455448.642		0.390294	-2.54552	-152.783		-0.02579	-0.0114989	0.0135988		-0.442985	-0.0847211	-9.76192		
1093455448.740		0.34324	-2.58641	-152.785		-0.0103442	-0.00430867	0.00359998		-0.444153	-0.0909129	-9.77212		
1093455448.846		0.316444	-2.63344	-152.911		0.000707092	-0.00805713	-0.0175781		-0.452093	-0.0711426	-9.76546		
1093455448.940		0.292764	-2.67946	-152.991		-0.00324075	-0.00390237	-0.00166309		-0.46799	-0.0315795	-9.75889		
1093455449.045		0.254631	-2.70241	-153.014		-0.00172635	-0.00497339	-0.0140454		-0.449824	-0.0173358	-9.78087		
1093455449.140		0.222089	-2.71882	-153.15		-0.00890114	-0.00110933	-0.00131439		-0.471934	-0.0191799	-9.74598		
1093455449.246		0.23352	-2.73427	-153.211		0.00421421	0.00548235	-0.0105547		-0.470287	-0.00777396	-9.77234		
1093455449.340		0.251052	-2.72235	-153.24		-0.0119295	0.00886572	-0.00407244		-0.47031	-0.0202012	-9.7786		
1093455449.443		0.254697	-2.70561	-153.365		0.00233992	0.00524354	0.00855003		-0.466836	-0.0202731	-9.75543		
1093455449.540		0.276275	-2.69412	-153.442		-0.00396356	0.00636494	-0.00176583		-0.457792	-0.0371663	-9.77612		
1093455449.645		0.326088	-2.6862	-153.473		0.00996772	0.00784247	0.00328438		-0.467418	-0.0406429	-9.75555		
1093455449.740		0.342516	-2.68911	-153.619		0.000172695	0.00665338	0.00226704		-0.473715	-0.057026	-9.76594		
1093455449.845		0.388053	-2.64275	-153.671		0.00266845	0.00834577	0.00268119		-0.447529	-0.0688845	-9.76195		
1093455449.940		0.454527	-2.59614	-153.728		0.0115078	0.00778129	-0.0152853		-0.458938	-0.0909511	-9.76687		
1093455450.043		0.528386	-2.54675	-153.843		0.00533975	0.00586156	-0.00159948		-0.444174	-0.0971144	-9.77891		
1093455450.140		0.60104	-2.50768	-153.86		0.0160836	0.00378561	0.00612977		-0.452061	-0.0530107	-9.78261		
1093455450.240		0.663834	-2.5161	-153.866		0.0106534	-0.00776751	0.00295654		-0.435051	-0.112924	-9.79432		
1093455450.340		0.74874	-2.49761	-153.949		0.0174714	0.00541631	-0.011159		-0.435625	-0.231264	-9.76908		
1093455450.447		0.83186	-2.52078	-154.009		0.0119726	-0.0111418	-0.0043043		-0.415086	-0.11805	-9.77582		
1093455450.540		0.880883	-2.54156	-154.106		0.018214	-0.00327265	-0.00326882		-0.464568	-0.0813603	-9.77013		
1093455450.644		0.886609	-2.55967	-154.236		0.0059414	0.000788116	-0.00650983		-0.441913	-0.136729	-9.77569		
1093455450.740		0.90508	-2.57269	-154.229		0.0128727	-0.00171734	-0.00174441		-0.447602	-0.142402	-9.77361		
1093455450.844		0.905494	-2.58784	-154.294		-0.00495648	-0.00233828	0.0132805		-0.451046	-0.158791	-9.78111		
1093455450.940		0.907035	-2.59867	-154.375		0.00612923	0.00765266	-0.00032328		-0.437361	-0.154274	-9.77229		
1093455451.044		0.87524	-2.59613	-154.352		0.00201223	-0.000321302	0.00055071		-0.43735	-0.145229	-9.76999		
1093455451.140		0.858885	-2.60037	-154.435		0.0051761	0.000481789	-0.00287893		-0.43736	-0.147481	-9.77338		
1093455451.246		0.803743	-2.61248	-154.473		-0.00903131	-0.00112822	0.00764719		-0.446435	-0.12262	-9.76672		
1093455451.340		0.73633	-2.62975	-154.472		-0.00774947	-0.00313253	0.0124412		-0.464142	-0.126527	-9.79028		
1093455451.443		0.647051	-2.65752	-154.555		-0.0228745	-0.000929774	0.0113441		-0.432805	-0.106139	-9.78261		
1093455451.540		0.586006	-2.66534	-154.595		-0.0108278	0.000882669	-0.000131152		-0.455509	-0.128904	-9.75235		
1093455451.644		0.54824	-2.65489	-154.599		-0.00965965	0.00208499	-0.00333735		-0.472626	-0.120946	-9.77076		
1093455451.740		0.495771	-2.651	-154.725		-0.0100558	-0.00729461	0.00146488		-0.461196	-0.091546	-9.75905		
1093455451.843		0.452543	-2.62303	-154.757		-0.0125978	0.00504696	0.010759		-0.442989	-0.0767886	-9.76526		
1093455451.940		0.371204	-2.59408	-154.776		-0.0116618	-0.00190179	-0.00300731		-0.455527	-0.0654611	-9.77396		
1093455452.045		0.302822	-2.58059	-154.89		-0.00763008	0.00527006	-0.00164067		-0.442415	-0.0592404	-9.7674		
1093455452.140		0.234001	-2.55639	-154.941		-0.0186912	0.00845497	0.00321578		-0.438999	-0.0246956	-9.775		
1093455452.244		0.160799	-2.53675	-154.956		-0.00545536	0.00786511	-0.00378513		-0.426464	-0.0275267	-9.76907		
1093455452.340		0.135487	-2.50509	-155.042		-0.00756914	0.00587147	-0.00324112		-0.420252	-0.047839	-9.78366		
1093455452.446		0.101136	-2.48517	-155.074		-0.00469765	0.00317563	-0.00176221		-0.414515	-0.0303363	-9.76991		
1093455452.540		0.0980804	-2.47617	-155.075		-0.00178522	0.0014788	-0.00135026		-0.432686	-0.0145625	-9.75677		
1093455452.640		0.0991302	-2.4853	-155.182		-0.0089825	-0.00052747	0.00636683		-0.425918	-0.0382539	-9.77587		
1093455452.740		0.103434	-2.49906	-155.239		-0.00519507	0.00428541	-0.00794697		-0.430996	-0.0428487	-9.75745		
1093455452.844		0.123956	-2.52526	-155.281		0.00603821	-0.00970735	0.00735748		-0.43387	-0.00940835	-9.77592		
1093455452.940		0.173823	-2.56222	-155.386		0.00815507	0.000694126	-0.00972134		-0.468034	-0.135712	-9.75215		
1093455453.046		0.279298	-2.59737	-155.581		0.0212761	-0.000465093	-0.0302697		-0.458803	-0.0243089	-9.72935		
1093455453.140		0.360735	-2.62294	-155.724		0.0162799	0.00569522	-0.0197899		-0.453266	-0.0478827	-9.7845		
1093455453.244		0.421526	-2.62511	-155.93		0.020001	-0.00189604	-0.0131949		-0.471404	-0.0434772	-9.75567		
1093455453.340		0.550855	-2.65573	-156.038		0.0195717	-0.00267047	-0.0239672		-0.477716	-0.0756954	-9.76839		
1093455453.442		0.660324	-2.70118	-156.179		0.0255385	-0.00436766	-0.0241041		-0.465795	-0.0807346	-9.77937		
1093455453.540		0.758687	-2.7261	-156.375		0.0140686	-0.0016099	-0.00569752		-0.456732	-0.0925561	-9.79384		
1093455453.644		0.840444	-2.75504	-156.44		0.0115757	-0.000973676	-0.00472872		-0.476537	-0.11986	-9.76783		
1093455453.740		0.899617	-2.80305	-156.587		0.015306	-0.00236128	-0.00933473		-0.475967	-0.149306	-9.76066		
1093455453.851		0.937142	-2.80783	-156.752		-0.000422081	0.00706005	-0.00135699		-0.488546	-0.14817	-9.7578		
1093455453.940		0.969522	-2.81281	-156.813		0.00419127	0.0054986	-0.0182354		-0.458448	-0.246	-9.76207		
1093455454.044		1.01961	-2.80759	-157.129		0.00669099	0.00892656	-0.0372365		-0.465844	-0.148054	-9.78312		
1093455454.140		1.05642	-2.78801	-157.392		0.00797624	0.00414324	-0.0380966		-0.48627	-0.177611	-9.75115		
1093455454.244		1.08683	-2.7287	-157.596		0.0131564	0.0143046	-0.036629		-0.499437	-0.198482	-9.77637		
1093455454.340		1.10769	-2.68895	-157.919		-0.00338406	0.00985108	-0.0294021		-0.493087	-0.193439	-9.7681		
1093455454.441		1.11858	-2.62326	-158.105		0.00279158	0.0192409	-0.0404208		-0.446437	-0.183151	-9.77923		
1093455454.540		1.15505	-2.55649	-158.38		-0.00861548	0.0079715	-0.0349229		-0.391907	-0.430947	-9.76567		
1093455454.643		1.24453	-2.42721	-158.758		-0.00234256	0.0283546	-0.0124451		-0.412627	-0.264202	-9.89365		
1093455454.741		1.27974	-2.32862	-158.854		0.011097	0.0255131	0.00828912		-0.356439	-0.339398	-9.71642		
1093455454.846		1.33652	-2.19241	-158.869		-0.00113181	0.0271374	0.0259566		-0.365326	-0.267098	-9.84424		
1093455454.940		1.40446	-2.10254	-158.846		0.0172915	0.0166456	0.0337574		-0.373798	-0.277952	-9.81637		
1093455455.045		1.51054	-2.03102	-158.688		0.0201128	0.0100656	0.033743		-0.284039	-0.322904	-9.87287		
1093455455.141		1.62226	-1.98076	-158.515		0.0131292	0.0178158	0.0470065		-0.316813	-0.285888	-9.78794		
1093455455.246		1.73182	-1.9322	-158.498		0.0243546	0.0103657	0.0322281		-0.357647	-0.27198	-9.73374		
1093455455.341		1.82076	-1.88631	-158.358		0.0219144	0.0201506	0.0249866		-0.351628	-0.328848	-9.81552		
1093455455.445		1.87672	-1.89371	-158.375		0.00221034	0.011422	0.00929761		-0.257783	-0.464526	-9.81104		
1093455455.540		1.86905	-1.9155	-158.452		-0.0010534	0.00443943	0.0125142		-0.301832	-0.309886	-9.71112		
1093455455.644		1.84594	-1.92604	-158.36		0.00341156	0.000653582	0.0105714		-0.345206	-0.358492	-9.74571		
1093455455.740		1.7905	-1.98049	-158.28		-0.0115957	-0.00376819	0.0311291		-0.313295	-0.296775	-9.74512		
1093455455.841		1.73528	-2.02742	-158.219		-0.00531902	0.00732263	0.0354676		-0.317297	-0.334643	-9.76887		
1093455455.941		1.67763	-2.08976	-158.019		-0.00427662	-0.0188632	0.0213802		-0.351358	-0.297434	-9.74252		
1093455456.044		1.63601	-2.17588	-157.907		-0.00624326	-0.00701733	0.0292846		-0.348745	-0.254094	-9.84354		
1093455456.140		1.59656	-2.23941	-157.862		-0.0041678	-0.0079348	0.019997		-0.358671	-0.334983	-9.67444		
1093455456.246		1.58296	-2.30512	-157.736		-0.00990703	-0.00497597	0.0362411		-0.358969	-0.21795	-9.81792		
1093455456.340		1.52004	-2.3035	-157.664		-0.00992471	0.00401708	0.025787		-0.346292	-0.297407	-9.73922		
1093455456.444		1.45549	-2.34228	-157.579		-0.00829184	-0.0107495	0.032179		-0.292633	-0.224489	-9.69466		
1093455456.541		1.37969	-2.37864	-157.393		-0.00899688	-0.00259183	0.0398636		-0.38969	-0.233867	-9.80866		
1093455456.641		1.3567	-2.4132	-157.347		-0.00538832	0.000217663	0.0302445		-0.419046	-0.242148	-9.71263		
1093455456.741		1.32275	-2.43597	-157.263		-0.00330443	1.09757e-05	0.0332209		-0.407096	-0.180973	-9.72775		
1093455456.844		1.30813	-2.47802	-157.139		0.000193554	-0.0141361	0.0290424		-0.42198	-0.205798	-9.75529		
1093455456.941		1.27483	-2.50799	-157.129		0.00213325	-0.000965215	0.0222056		-0.383975	-0.18236	-9.81161		
1093455457.041		1.26537	-2.5053	-157.032		0.000647255	-0.00558573	0.0392814		-0.456634	-0.243305	-9.72092		
1093455457.141		1.28805	-2.48375	-156.914		0.00923001	0.00362793	0.0351807		-0.405551	-0.237331	-9.80381		
1093455457.241		1.35155	-2.42072	-156.92		0.00225187	0.0109035	0.037243		-0.471442	-0.253452	-9.7476		
1093455457.341		1.35896	-2.33171	-156.826		0.00445085	0.0209628	0.0220879		-0.379398	-0.325644	-9.76949		
1093455457.444		1.41731	-2.27574	-156.82		0.0173795	0.00783208	0.00644728		-0.422136	-0.230511	-9.8106		
1093455457.541		1.45707	-2.21623	-156.903		0.012842	0.0135957	0.015858		-0.331658	-0.255838	-9.81292		
1093455457.644		1.48808	-2.13165	-156.889		0.0108106	0.02029	0.00882771		-0.362354	-0.239511	-9.80123		
1093455457.741		1.52253	-2.08365	-156.887		0.0105619	0.00881368	0.0152293		-0.338216	-0.255633	-9.70669		
1093455457.841		1.5597	-2.06957	-156.981		0.0115048	0.00704836	0.0013564		-0.342376	-0.233328	-9.78042		
1093455457.942		1.56965	-2.06026	-156.933		0.0144631	0.0187867	0.0117962		-0.364301	-0.233146	-9.67402		
1093455458.046		1.58811	-2.05837	-156.973		0.00787133	0.0140347	-0.00203874		-0.298003	-0.274005	-9.78007		
1093455458.141		1.57794	-2.06813	-157.048		0.00463198	-0.00848978	-0.00244973		-0.316658	-0.406133	-9.69964		
1093455458.244		1.59782	-2.08446	-157.043		0.00342039	0.00204951	0.010358		-0.310551	-0.323253	-9.77897		
1093455458.341		1.61065	-2.0935	-157.071		0.0111195	0.00785364	-0.00226868		-0.368541	-0.304734	-9.75728		
1093455458.441		1.60464	-2.10242	-157.149		0.0167337	0.00582623	0.0124244		-0.386742	-0.285523	-9.75707		
1093455458.541		1.6173	-2.14169	-157.112		0.00537198	-0.00532935	0.0112014		-0.356418	-0.2653	-9.69989		
1093455458.641		1.622	-2.15635	-157.101		0.00960363	0.00623338	0.0101135		-0.341951	-0.297125	-9.82242		
1093455458.741		1.65042	-2.19651	-157.152		-0.00187128	-0.00987712	-0.00476383		-0.374368	-0.263797	-9.81969		
1093455458.846		1.66109	-2.25758	-157.098		-0.00477291	-0.00582256	0.0111459		-0.431279	-0.347124	-9.79796		
1093455458.941		1.68607	-2.29644	-157.21		-0.002338	-0.00136603	0.0242551		-0.432176	-0.31856	-9.71		
1093455459.044		1.73483	-2.33937	-157.201		0.01215	-0.00560958	0.000712716		-0.382319	-0.450125	-9.77024		
1093455459.141		1.76635	-2.36742	-157.163		0.00416508	-0.000817354	-0.00106034		-0.42034	-0.35633	-9.74706		
1093455459.245		1.80583	-2.41753	-157.269		0.00527023	-0.00910507	0.00554786		-0.41869	-0.419106	-9.75524		
1093455459.341		1.80223	-2.44613	-157.286		0.00396211	-0.000939941	0.0098218		-0.438481	-0.354184	-9.71937		
1093455459.446		1.85583	-2.43348	-157.265		-0.00296412	0.00866018	-0.0032643		-0.45136	-0.414894	-9.845		
1093455459.541		1.8692	-2.37812	-157.313		0.0118873	0.0201681	0.0190633		-0.38275	-0.330261	-9.7437		
1093455459.643		1.88932	-2.33842	-157.274		6.40138e-07	0.00710719	0.0233901		-0.423872	-0.353919	-9.7933		
1093455459.741		1.92217	-2.30082	-157.281		0.00674484	0.0108179	0.0110882		-0.405457	-0.337166	-9.71843		
1093455459.844		1.91743	-2.27799	-157.329		0.00459684	0.00218015	0.0138685		-0.43953	-0.323671	-9.71677		
1093455459.941		1.8586	-2.25966	-157.247		0.0026039	-0.000504522	0.0112116		-0.392901	-0.35356	-9.727		
1093455460.043		1.81487	-2.26275	-157.236		0.00560801	0.00420569	0.0272021		-0.460009	-0.224109	-9.70964		
1093455460.141		1.77536	-2.248	-157.213		-0.00572594	0.00463136	0.017125		-0.394381	-0.304476	-9.84632		
1093455460.243		1.70355	-2.25229	-157.061		-0.00738192	0.00460397	0.030468		-0.400437	-0.298521	-9.76763		
1093455460.341		1.64438	-2.25873	-157.021		-0.00847645	-0.0124249	0.023219		-0.332079	-0.289439	-9.74725		
1093455460.441		1.59041	-2.22609	-156.953		-0.0144059	0.0120117	0.017169		-0.395244	-0.289545	-9.74211		
1093455460.541		1.5397	-2.22377	-156.785		-0.00599775	-0.00247806	0.0324877		-0.368008	-0.327902	-9.7664		
1093455460.643		1.51855	-2.19944	-156.78		-0.00331629	0.00640114	0.0281006		-0.312692	-0.284926	-9.73491		
1093455460.741		1.52841	-2.18928	-156.651		0.00694131	0.00100229	0.0333826		-0.352175	-0.308492	-9.81148		
1093455460.844		1.53593	-2.17345	-156.617		0.00245935	0.00512711	0.0164436		-0.403306	-0.245834	-9.78881		
1093455460.941		1.5424	-2.16052	-156.638		-0.00234351	0.0136198	0.00804054		-0.307663	-0.368603	-9.75213		
1093455461.041		1.55859	-2.17584	-156.601		0.00300656	-0.00749538	-0.000948001		-0.379083	-0.262634	-9.66049		
1093455461.141		1.54515	-2.18914	-156.55		0.00119523	-0.00686285	0.0303177		-0.386219	-0.346618	-9.76077		
1093455461.243		1.54955	-2.2176	-156.545		0.00416789	-0.00177851	0.0292361		-0.363399	-0.266813	-9.75863		
1093455461.341		1.54685	-2.2263	-156.384		0.00809698	0.00276161	0.0208916		-0.370123	-0.279364	-9.73952		
1093455461.443		1.56813	-2.23461	-156.364		0.0200354	0.00992125	0.0261654		-0.35981	-0.23527	-9.72326		
1093455461.541		1.58663	-2.253	-156.388		-0.00112699	0.00204902	0.0116611		-0.338599	-0.325352	-9.8405		
1093455461.644		1.59944	-2.2644	-156.303		-0.00249906	-0.00512751	0.0118812		-0.371206	-0.21324	-9.70787		
1093455461.741		1.6249	-2.26533	-156.317		0.00812356	-0.00237377	0.0269758		-0.402199	-0.266743	-9.79621		
1093455461.844		1.63506	-2.24327	-156.284		-0.0032501	-0.00575543	0.0261798		-0.361125	-0.290589	-9.75419		
1093455461.941		1.65956	-2.24838	-156.144		0.00837138	0.00760735	0.0205742		-0.390841	-0.326151	-9.7923		
1093455462.046		1.67807	-2.2817	-156.15		0.00525062	-0.00236921	0.0254969		-0.385531	-0.267496	-9.73274		
1093455462.141		1.72658	-2.28233	-156.115		0.0076044	0.00579414	0.0297523		-0.380615	-0.364616	-9.79112		
1093455462.246		1.76725	-2.29368	-155.994		0.00719035	-0.0135597	0.037648		-0.380563	-0.304095	-9.7846		
1093455462.341		1.82692	-2.29911	-156.012		0.0282195	0.00504531	0.00191199		-0.353688	-0.257784	-9.74707		
1093455462.445		1.86175	-2.27939	-155.958		0.0171514	0.00759675	0.0235168		-0.356145	-0.322107	-9.80265		
1093455462.541		1.88826	-2.27251	-155.838		0.00712672	0.0108569	0.0396759		-0.373647	-0.347231	-9.74131		
1093455462.644		1.92451	-2.27045	-155.782		0.0145847	0.00656311	0.0415583		-0.403508	-0.360521	-9.84123		
1093455462.741		1.94795	-2.26902	-155.658		-0.00313865	-0.00567295	0.0342867		-0.342908	-0.380035	-9.73226		
1093455462.841		1.92148	-2.27227	-155.544		-0.00304964	-0.00115933	0.0209517		-0.364687	-0.303994	-9.8084		
1093455462.941		1.92923	-2.27092	-155.582		-0.00310701	0.00165173	0.0114577		-0.390522	-0.378092	-9.65578		
1093455463.045		1.91727	-2.24987	-155.589		0.00709409	0.0121918	0.0212209		-0.380508	-0.333044	-9.75661		
1093455463.141		1.93811	-2.21434	-155.565		-0.00704396	0.00940703	0.0216122		-0.338277	-0.287264	-9.72319		
1093455463.241		1.92321	-2.17101	-155.6		0.0109628	0.0045382	0.0101066		-0.372415	-0.268076	-9.72284		
1093455463.341		1.89602	-2.14123	-155.481		-0.00647721	0.0102887	0.0287568		-0.359706	-0.311729	-9.86236		
1093455463.446		1.90802	-2.11116	-155.412		-0.000883607	0.00781438	0.0191275		-0.341774	-0.346053	-9.74162		
1093455463.541		1.87023	-2.1117	-155.454		0.00288216	0.00641706	0.0191084		-0.376685	-0.340191	-9.81791		
1093455463.645		1.85341	-2.14043	-155.381		-0.00606486	-0.00275743	0.0232071		-0.358158	-0.266959	-9.71233		
1093455463.741		1.8139	-2.15384	-155.339		0.0004942	-0.00117933	0.0295747		-0.371337	-0.343874	-9.72885		
1093455463.841		1.7736	-2.15176	-155.338		0.00437688	0.0012408	0.0154737		-0.358697	-0.285119	-9.69612		
1093455463.941		1.73499	-2.1689	-155.212		-0.0144508	-0.0081483	0.0291166		-0.386326	-0.339117	-9.80464		
1093455464.045		1.71821	-2.15786	-155.197		0.00949229	0.0119908	0.0214221		-0.373602	-0.3337	-9.7266		
1093455464.141		1.69622	-2.15311	-155.181		-0.00346595	-0.00138172	0.0319416		-0.353696	-0.338181	-9.73175		
1093455464.241		1.68057	-2.14894	-155.021		-0.00159197	-0.00120132	0.0404663		-0.354318	-0.348873	-9.74983		
1093455464.341		1.67237	-2.16895	-154.985		-0.00789713	0.00430565	0.0302573		-0.33378	-0.343809	-9.73239		
1093455464.445		1.68719	-2.16447	-154.953		4.48505e-05	0.00987714	0.033311		-0.390798	-0.236172	-9.79632		
1093455464.541		1.72689	-2.14194	-154.827		0.00573056	0.00434226	0.0281577		-0.35189	-0.357505	-9.71415		
1093455464.642		1.76469	-2.14618	-154.836		-0.00232563	0.0185057	0.0256385		-0.353182	-0.309177	-9.78541		
1093455464.741		1.8108	-2.13731	-154.766		0.0116566	0.00282373	0.019384		-0.347643	-0.353192	-9.80936		
1093455464.844		1.85041	-2.10805	-154.628		0.00954116	0.0191233	0.0423309		-0.380635	-0.374216	-9.79681		
1093455464.941		1.85374	-2.10722	-154.587		0.0100082	-0.00488398	0.0351804		-0.382079	-0.282827	-9.71472		
1093455465.046		1.87536	-2.11616	-154.418		0.0120103	-0.00177584	0.0445541		-0.297621	-0.300321	-9.87289		
1093455465.141		1.88802	-2.14486	-154.239		0.00282111	-0.0136316	0.0439602		-0.396457	-0.366406	-9.77895		
1093455465.245		1.86358	-2.17992	-154.115		0.000763049	0.00372632	0.0377837		-0.295713	-0.306242	-9.79293		
1093455465.341		1.84706	-2.1949	-153.922		-0.00665053	-0.00465353	0.0428348		-0.371319	-0.342144	-9.74778		
1093455465.441		1.83489	-2.21654	-153.745		0.0044406	0.00520299	0.0456593		-0.397312	-0.326005	-9.67742		
1093455465.541		1.85354	-2.2337	-153.704		-0.00398376	0.00338566	0.0401585		-0.409046	-0.367523	-9.77948		
1093455465.642		1.82747	-2.2553	-153.543		-0.00625926	-0.00277403	0.0311022		-0.434005	-0.339355	-9.75295		
1093455465.741		1.76989	-2.27929	-153.36		0.00385863	0.00169297	0.0374519		-0.388532	-0.324489	-9.78041		
1093455465.841		1.73274	-2.28175	-153.25		-0.00734853	-0.00201939	0.0515899		-0.394144	-0.260049	-9.76388		
1093455465.941		1.70506	-2.32108	-153.064		-0.00267451	-0.00937025	0.0385514		-0.395174	-0.254528	-9.72278		
1093455466.044		1.6719	-2.33253	-152.901		-0.00114684	-0.00428995	0.0397172		-0.315501	-0.294039	-9.71814		
1093455466.141		1.62212	-2.3072	-152.781		-0.0139329	-0.00480082	0.0486361		-0.398665	-0.241977	-9.75545		
1093455466.247		1.60297	-2.31871	-152.587		0.00280325	-0.00177135	0.0446006		-0.376636	-0.241108	-9.847		
1093455466.341		1.60772	-2.31383	-152.458		-0.00535997	0.00711517	0.0393082		-0.380901	-0.342846	-9.71087		
1093455466.445		1.61826	-2.30478	-152.447		0.00491615	0.00519919	0.0289125		-0.364646	-0.321033	-9.78879		
1093455466.541		1.65415	-2.29401	-152.288		0.0119371	-0.000215217	0.0423182		-0.348727	-0.217931	-9.81935		
1093455466.646		1.66256	-2.3016	-152.139		0.000836612	0.00679602	0.0289331		-0.34641	-0.244028	-9.79747		
1093455466.741		1.72549	-2.29512	-152.078		0.0170422	0.00897446	0.031945		-0.440802	-0.287314	-9.75171		
1093455466.849		1.80976	-2.30165	-151.966		0.011079	2.42569e-05	0.0235473		-0.345963	-0.342395	-9.82277		
1093455466.941		1.87622	-2.23529	-151.786		0.0196497	0.0205057	0.0461203		-0.392949	-0.266915	-9.74024		
1093455467.047		1.94223	-2.193	-151.715		0.0266867	0.00994419	0.0424574		-0.345367	-0.340165	-9.81261		
1093455467.141		2.02134	-2.14069	-151.506		0.0118152	0.0185343	0.0375189		-0.412424	-0.348324	-9.76933		
1093455467.246		2.06873	-2.1445	-151.247		0.0107491	0.00825065	0.0641895		-0.356764	-0.338977	-9.84365		
1093455467.341		2.09839	-2.14866	-151.15		0.00704767	0.00509572	0.0486331		-0.405428	-0.369426	-9.72515		
1093455467.444		2.1094	-2.15956	-150.936		0.00772641	-0.000531141	0.0513004		-0.364672	-0.421225	-9.77583		
1093455467.541		2.11429	-2.17785	-150.674		0.00781108	0.00823318	0.0547139		-0.400563	-0.353851	-9.80396		
1093455467.645		2.11725	-2.18951	-150.548		0.00156318	-0.0015948	0.0372501		-0.412429	-0.39475	-9.76058		
1093455467.741		2.09522	-2.20657	-150.36		0.00646903	-0.00401922	0.0513067		-0.444357	-0.385664	-9.78386		
1093455467.850		2.06571	-2.20145	-150.107		-0.00355112	0.0103401	0.050931		-0.397617	-0.298484	-9.77769		
1093455467.941		2.06985	-2.22433	-149.938		0.00333672	-0.00384135	0.0622036		-0.350922	-0.347145	-9.75762		
1093455468.042		2.01976	-2.21067	-149.723		0.00217725	0.00273722	0.0625297		-0.375934	-0.344955	-9.74586		
1093455468.141		1.99482	-2.22702	-149.45		0.00932882	-2.58686e-05	0.0476653		-0.341935	-0.384349	-9.79587		
1093455468.247		1.97982	-2.21753	-149.345		-0.000924861	0.00675695	0.0478239		-0.373545	-0.254498	-9.72279		
1093455468.341		1.97116	-2.19476	-149.157		0.00701357	0.00654131	0.0536511		-0.390334	-0.373067	-9.80606		
1093455468.443		1.94619	-2.16795	-148.881		0.00249251	0.00806751	0.0584706		-0.313157	-0.315021	-9.71236		
1093455468.545		1.97433	-2.12955	-148.715		0.00564033	0.00748595	0.0499205		-0.371449	-0.262135	-9.81715		
1093455468.641		2.01455	-2.11952	-148.463		0.0200971	0.00508191	0.0520876		-0.287073	-0.361289	-9.74009		
1093455468.741		2.04564	-2.12213	-148.239		0.0138969	0.00755683	0.043162		-0.396541	-0.342568	-9.79198		
1093455468.844		2.07628	-2.106	-148.097		-0.00241933	0.0191156	0.0487919		-0.350403	-0.377656	-9.77016		
1093455468.941		2.10415	-2.11015	-147.911		0.0139242	-0.00285448	0.0643904		-0.403021	-0.307924	-9.66304		
1093455469.044		2.1474	-2.11426	-147.647		0.0106396	0.0141186	0.0519262		-0.388554	-0.406001	-9.77016		
1093455469.141		2.15907	-2.12175	-147.478		0.0125017	0.00494651	0.0523432		-0.32487	-0.461321	-9.78234		
1093455469.244		2.15126	-2.11471	-147.287		0.00102158	0.0115439	0.0462141		-0.328661	-0.350592	-9.7323		
1093455469.341		2.13968	-2.1236	-147.045		0.00105301	-0.00193374	0.0562412		-0.319804	-0.48389	-9.79923		
1093455469.446		2.1462	-2.11095	-146.847		0.000633363	0.0110366	0.0689345		-0.324815	-0.335631	-9.81523		
1093455469.541		2.0907	-2.12331	-146.576		-0.000691289	0.00107768	0.0651005		-0.371322	-0.382344	-9.73955		
1093455469.644		2.05448	-2.14174	-146.26		-0.00136575	0.00867399	0.0553964		-0.313383	-0.346437	-9.7936		
1093455469.741		2.00759	-2.16412	-146.033		0.000589527	-0.00882521	0.0628574		-0.316626	-0.300852	-9.71145		
1093455469.842		1.98324	-2.18283	-145.761		0.0028085	0.00253192	0.0651934		-0.309573	-0.307189	-9.84529		
1093455469.941		1.93892	-2.20832	-145.452		-0.00059037	-0.000271812	0.0720379		-0.376408	-0.320165	-9.71422		
1093455470.046		1.89709	-2.262	-145.256		-0.00113404	-0.0108206	0.0641462		-0.329902	-0.322714	-9.7789		
1093455470.141		1.84954	-2.29463	-145.009		-0.00241524	0.00391281	0.0733273		-0.475989	-0.268242	-9.71648		
1093455470.245		1.82893	-2.32247	-144.674		-0.000281536	-0.00454071	0.063822		-0.361331	-0.321466	-9.82755		
1093455470.341		1.81188	-2.30679	-144.455		0.00883994	0.00514765	0.0523617		-0.415754	-0.312199	-9.74445		
1093455470.446		1.81885	-2.30753	-144.185		0.00670164	-0.00165506	0.0645336		-0.369406	-0.316242	-9.87051		
1093455470.545		1.83479	-2.29507	-143.914		0.00531772	0.0126094	0.0598472		-0.417901	-0.32143	-9.69164		
1093455470.642		1.87637	-2.28868	-143.716		0.0047029	0.00821304	0.0649707		-0.501264	-0.324037	-9.79399		
1093455470.741		1.90647	-2.28044	-143.474		0.0057016	0.00673815	0.0551512		-0.401099	-0.342569	-9.79378		
1093455470.847		1.93073	-2.28733	-143.19		0.0011205	-0.000956627	0.0655219		-0.415817	-0.278142	-9.77692		
1093455470.941		1.93014	-2.28031	-142.984		0.0170301	0.00634722	0.0488		-0.412376	-0.403311	-9.73811		
1093455471.050		1.98598	-2.24486	-142.738		0.0126483	0.0133802	0.0706913		-0.352105	-0.327836	-9.7795		
1093455471.141		2.00993	-2.22548	-142.395		0.0152956	0.0130758	0.0725981		-0.380511	-0.416845	-9.73849		
1093455471.246		2.03805	-2.21306	-142.13		0.00579306	0.00290887	0.0747794		-0.401565	-0.324583	-9.75767		
1093455471.341		2.0504	-2.19355	-141.83		-0.00344562	-0.000641607	0.0590376		-0.338371	-0.309226	-9.75484		
1093455471.442		2.08147	-2.16542	-141.5		0.0016333	0.0110627	0.0563415		-0.335823	-0.250065	-9.68782		
1093455471.542		2.0858	-2.16246	-141.305		0.000304866	-0.00191582	0.0663755		-0.40321	-0.462777	-9.72673		
1093455471.642		2.0848	-2.15273	-141.067		-0.00136919	0.00272204	0.0705484		-0.331089	-0.396265	-9.78102		
1093455471.741		2.08913	-2.16867	-140.714		-0.000534032	0.00170726	0.078865		-0.403818	-0.375579	-9.73661		
1093455471.845		2.08411	-2.15464	-140.48		0.000766405	0.0077071	0.069471		-0.363716	-0.349074	-9.86379		
1093455471.942		2.067	-2.15148	-140.193		0.00402615	0.0104798	0.0773488		-0.400899	-0.37114	-9.70893		
1093455472.047		2.07568	-2.15566	-139.866		0.000511298	-0.00562829	0.0594442		-0.283924	-0.317392	-9.82893		
1093455472.141		2.08118	-2.17037	-139.596		0.0163034	-0.00323834	0.0568043		-0.419067	-0.367827	-9.69192		
1093455472.242		2.09123	-2.20158	-139.356		0.0031213	0.00132978	0.0679654		-0.369271	-0.363983	-9.80659		
1093455472.342		2.08836	-2.23052	-139.025		0.00079841	0.00711083	0.0686174		-0.4021	-0.348411	-9.73867		
1093455472.445		2.1025	-2.27063	-138.753		0.00515724	0.00132563	0.0694486		-0.367593	-0.357146	-9.82002		
1093455472.542		2.11329	-2.30754	-138.492		0.00425068	-0.000272596	0.0712667		-0.449931	-0.376764	-9.74005		
1093455472.645		2.11783	-2.33627	-138.127		-0.00337244	0.00500882	0.0737589		-0.378197	-0.335917	-9.74249		
1093455472.742		2.12205	-2.33599	-137.899		-0.00612258	0.00474452	0.0579845		-0.35608	-0.370321	-9.76632		
1093455472.842		2.13848	-2.34038	-137.639		0.00956917	0.00411534	0.0689997		-0.38971	-0.370306	-9.7852		
1093455472.942		2.16563	-2.32889	-137.332		0.0106665	0.0057358	0.0566196		-0.407259	-0.403863	-9.74023		
1093455473.046		2.17474	-2.30398	-137.085		0.00882782	0.00647817	0.083085		-0.350848	-0.430478	-9.70966		
1093455473.142		2.17599	-2.2862	-136.808		0.00387905	0.0161127	0.0716918		-0.393097	-0.416159	-9.78927		
1093455473.245		2.17649	-2.26045	-136.401		-0.00631288	0.0124156	0.0783572		-0.328127	-0.287073	-9.78578		
1093455473.342		2.17643	-2.24889	-136.103		-0.00400139	-0.000337386	0.0751449		-0.374784	-0.472887	-9.73732		
1093455473.446		2.16449	-2.24095	-135.757		0.00960544	0.00312644	0.0652658		-0.347482	-0.308101	-9.75676		
1093455473.542		2.18393	-2.24152	-135.401		0.00213786	-0.000472047	0.0718107		-0.338215	-0.385871	-9.67644		
1093455473.642		2.18728	-2.22948	-135.146		-0.00095037	0.0033199	0.0705463		-0.378353	-0.356099	-9.7989		
1093455473.742		2.17069	-2.2402	-134.819		-0.00153782	0.00312308	0.0694825		-0.411086	-0.385953	-9.68281		
1093455473.846		2.15607	-2.24278	-134.476		0.00605487	0.0222718	0.0626173		-0.369959	-0.419321	-9.84069		
1093455473.942		2.13579	-2.21794	-134.243		0.00141124	0.0137115	0.0580534		-0.386143	-0.309909	-9.73974		
1093455474.042		2.11303	-2.22603	-133.91		-0.0115758	-0.000559617	0.0693197		-0.445541	-0.395798	-9.79971		
1093455474.142		2.10547	-2.20642	-133.576		-0.00751474	0.00929921	0.0727132		-0.374821	-0.338127	-9.75706		
1093455474.246		2.10884	-2.20848	-133.297		0.00730833	0.00828167	0.079039		-0.384063	-0.311916	-9.81626		
1093455474.342		2.12642	-2.19905	-132.896		0.0065167	0.0142884	0.0668819		-0.329337	-0.351021	-9.77398		
1093455474.447		2.14582	-2.15713	-132.564		0.00735999	0.0141653	0.0777587		-0.349232	-0.295025	-9.77643		
1093455474.542		2.13988	-2.10278	-132.256		0.00845869	0.00570124	0.0734858		-0.368136	-0.366241	-9.8077		
1093455474.642		2.14419	-2.07648	-131.837		0.0074937	0.0117168	0.0756205		-0.350793	-0.437292	-9.71174		
1093455474.742		2.1606	-2.089	-131.524		-0.000911649	-0.00133837	0.0764094		-0.31907	-0.35268	-9.79041		
1093455474.842		2.16499	-2.08148	-131.23		0.00974643	0.0107162	0.0768893		-0.40081	-0.387623	-9.69586		
1093455474.942		2.17396	-2.11393	-130.861		0.000202786	-0.00586223	0.0758741		-0.311083	-0.412203	-9.74401		
1093455475.046		2.17651	-2.14586	-130.662		0.00417934	-0.0100096	0.0564386		-0.405346	-0.325984	-9.67783		
1093455475.142		2.15893	-2.19528	-130.345		0.00455851	0.00430608	0.0742522		-0.425022	-0.345411	-9.80004		
1093455475.242		2.157	-2.22017	-130.038		0.0086634	0.00505573	0.0487356		-0.370925	-0.404823	-9.77646		
1093455475.342		2.151	-2.25315	-129.88		0.00814378	-0.00104146	0.0568455		-0.445495	-0.390762	-9.78279		
1093455475.442		2.15771	-2.28436	-129.616		-0.00237037	-0.00602875	0.0609522		-0.396091	-0.447735	-9.81449		
1093455475.542		2.17145	-2.29119	-129.299		0.0142553	0.0074069	0.0668426		-0.380489	-0.316081	-9.75314		
1093455475.642		2.18884	-2.29713	-129.058		0.0201616	-0.00294101	0.0751294		-0.366978	-0.379801	-9.82218		
1093455475.742		2.21163	-2.28382	-128.658		0.015012	0.00692795	0.0759025		-0.396371	-0.402758	-9.73693		
1093455475.846		2.20799	-2.31055	-128.345		0.00647809	0.0026244	0.0677352		-0.442058	-0.430423	-9.76491		
1093455475.942		2.20263	-2.31326	-128.059		0.0131503	0.00509998	0.0738888		-0.353209	-0.325617	-9.76657		
1093455476.049		2.21804	-2.32812	-127.751		0.00365995	-0.000657256	0.0647623		-0.489765	-0.363241	-9.73987		
1093455476.142		2.19272	-2.31751	-127.44		0.00100785	0.0161407	0.0591184		-0.415155	-0.409578	-9.73575		
1093455476.246		2.19226	-2.3377	-127.254		-0.00171554	-0.00469	0.0589182		-0.369703	-0.360709	-9.77936		
1093455476.342		2.17623	-2.39709	-127.016		0.00384531	-0.00322684	0.0543069		-0.435635	-0.39495	-9.70995		
1093455476.447		2.16436	-2.41599	-126.772		0.00453498	0.00832679	0.0583575		-0.481492	-0.536158	-9.80365		
1093455476.542		2.16526	-2.46827	-126.602		0.00384464	-0.00125676	0.0654014		-0.424351	-0.333651	-9.7628		
1093455476.646		2.13929	-2.47605	-126.233		0.0113678	0.000298758	0.0822186		-0.495504	-0.372248	-9.75639		
1093455476.742		2.13574	-2.50893	-125.973		0.00582628	-0.000243815	0.057284		-0.422817	-0.463661	-9.80063		
1093455476.846		2.15787	-2.5083	-125.751		0.0110763	-9.8021e-05	0.0526664		-0.462174	-0.319333	-9.66948		
1093455476.942		2.12374	-2.50101	-125.389		0.0103726	0.012035	0.0658983		-0.455655	-0.416314	-9.76892		
1093455477.047		2.11709	-2.50827	-125.139		-0.00276505	0.00507254	0.0619107		-0.465815	-0.36661	-9.74695		
1093455477.142		2.112	-2.49253	-124.878		0.0109119	0.0111318	0.0502179		-0.470427	-0.383581	-9.74061		
1093455477.246		2.10409	-2.47333	-124.515		2.52124e-05	0.00393688	0.0613671		-0.443103	-0.338247	-9.7498		
1093455477.342		2.10104	-2.46852	-124.292		0.00916996	0.0083146	0.0630279		-0.450029	-0.380034	-9.77779		
1093455477.444		2.09095	-2.43841	-123.957		0.00227879	0.00611424	0.0681832		-0.42899	-0.341474	-9.79449		
1093455477.542		2.10209	-2.40723	-123.612		0.00993672	0.0097291	0.0538498		-0.396525	-0.36524	-9.78028		
1093455477.645		2.10378	-2.40147	-123.367		0.00137678	0.00224713	0.0588		-0.440327	-0.367598	-9.77015		
1093455477.742		2.13127	-2.38645	-123.06		0.00536677	0.00534171	0.0556863		-0.422139	-0.419068	-9.76828		
1093455477.845		2.13724	-2.33948	-122.715		0.00185285	0.00731012	0.0683987		-0.419221	-0.331388	-9.76041		
1093455477.942		2.15767	-2.32785	-122.46		0.010807	0.0146909	0.0640866		-0.435128	-0.360895	-9.74183		
1093455478.047		2.17982	-2.31713	-122.104		0.00794034	-0.00364424	0.0621804		-0.455539	-0.371218	-9.70864		
1093455478.142		2.17907	-2.33636	-121.792		-0.00410927	0.00183688	0.0655484		-0.443029	-0.315693	-9.72603		
1093455478.242		2.15903	-2.34513	-121.495		0.00407479	4.00554e-05	0.0648669		-0.412549	-0.327776	-9.82327		
1093455478.342		2.09709	-2.37786	-121.105		-0.00722003	0.0029247	0.0703646		-0.40425	-0.276099	-9.70568		
1093455478.446		2.05271	-2.41917	-120.815		-0.00405646	0.000755072	0.058614		-0.461449	-0.349427	-9.79874		
1093455478.542		2.00802	-2.43538	-120.561		-0.0108826	0.00252191	0.0731567		-0.45152	-0.375788	-9.69392		
1093455478.647		1.98036	-2.44649	-120.193		-0.00866882	0.000944497	0.0643979		-0.411553	-0.434045	-9.85422		
1093455478.742		1.9622	-2.4445	-119.93		-0.0011886	0.00633198	0.0603065		-0.381877	-0.349735	-9.84287		
1093455478.842		1.94047	-2.45559	-119.673		-0.000725952	-0.0064761	0.0548594		-0.483981	-0.324794	-9.73818		
1093455478.942		1.94182	-2.49746	-119.325		-0.00384793	-0.00211135	0.065543		-0.393154	-0.337944	-9.82937		
1093455479.046		1.94113	-2.51877	-119.073		-0.0152757	-0.00170255	0.0634672		-0.495184	-0.274082	-9.67908		
1093455479.142		1.93048	-2.53967	-118.735		0.0106111	0.00950867	0.0636607		-0.409132	-0.343629	-9.81876		
1093455479.246		1.96237	-2.57409	-118.399		0.00307769	-0.00623618	0.063485		-0.390575	-0.281761	-9.69861		
1093455479.342		1.95503	-2.60514	-118.167		0.00156985	0.000675613	0.0661558		-0.419348	-0.360049	-9.82904		
1093455479.445		1.95817	-2.62521	-117.875		-0.00207128	-0.00659182	0.0627603		-0.476565	-0.302156	-9.73674		
1093455479.542		1.96423	-2.6453	-117.478		0.00546773	0.000938274	0.0640065		-0.456885	-0.323386	-9.80073		
1093455479.642		1.95618	-2.66755	-117.219		-0.00139816	-0.00605088	0.0711884		-0.483027	-0.339896	-9.78123		
1093455479.742		1.95516	-2.66479	-116.908		0.00400109	0.00413429	0.0613471		-0.396505	-0.364132	-9.77295		
1093455479.846		1.96605	-2.6466	-116.526		0.0136374	0.00596028	0.062468		-0.48184	-0.300833	-9.79654		
1093455479.942		1.96489	-2.64526	-116.271		0.00192008	0.00736147	0.0625272		-0.391245	-0.336503	-9.75107		
1093455480.047		1.94145	-2.61453	-116.001		-0.000356248	0.013502	0.0632895		-0.506827	-0.329308	-9.74237		
1093455480.142		1.90628	-2.61499	-115.648		-0.0110703	0.0123909	0.0727312		-0.470233	-0.324942	-9.67836		
1093455480.247		1.87287	-2.60237	-115.361		-0.00625519	0.00771572	0.0670529		-0.48363	-0.305312	-9.80244		
1093455480.342		1.83323	-2.57981	-115.056		-0.00384941	0.0148852	0.0699212		-0.389777	-0.322088	-9.82265		
1093455480.444		1.84786	-2.55846	-114.667		0.00158198	0.00462145	0.0672266		-0.462497	-0.304246	-9.77375		
1093455480.542		1.84676	-2.53313	-114.38		0.00607364	0.0121061	0.0619769		-0.425016	-0.31654	-9.80438		
1093455480.642		1.87893	-2.49277	-114.074		0.00485866	0.0230497	0.0721177		-0.477251	-0.291866	-9.75943		
1093455480.742		1.86104	-2.44327	-113.698		0.00519154	0.00580702	0.0713688		-0.390965	-0.294279	-9.84843		
1093455480.846		1.882	-2.39669	-113.41		0.0122399	0.0141146	0.0718629		-0.43042	-0.267037	-9.72861		
1093455480.942		1.91145	-2.4109	-113.06		0.0149185	0.00686983	0.0562742		-0.39769	-0.323816	-9.82604		
1093455481.042		1.92312	-2.45224	-112.793		0.00177629	-0.00461996	0.0536773		-0.449966	-0.324625	-9.76566		
1093455481.142		1.96856	-2.44887	-112.635		0.00919747	-0.00223765	0.0566268		-0.369867	-0.342431	-9.82225		
1093455481.247		1.99374	-2.44437	-112.421		0.00839448	0.00199768	0.0336953		-0.400907	-0.314506	-9.72494		
1093455481.342		2.00365	-2.45505	-112.218		0.0027009	0.00398565	0.0376712		-0.415207	-0.21251	-9.77598		
1093455481.442		2.03054	-2.41384	-112.098		0.00779845	0.00837888	0.0329517		-0.398695	-0.380103	-9.73538		
1093455481.542		2.04721	-2.39316	-111.948		0.0037842	0.0152454	0.0576108		-0.43917	-0.336989	-9.79564		
1093455481.646		2.06338	-2.40728	-111.707		0.0197752	-0.00565982	0.0411011		-0.382672	-0.342766	-9.73568		
1093455481.742		2.06982	-2.40838	-111.536		0.000867084	-0.00247108	0.0459972		-0.424451	-0.408212	-9.81029		
1093455481.905		2.05215	-2.43886	-111.312		0.00923321	0.00360383	0.0281439		-0.370498	-0.370098	-9.83987		
1093455481.942		2.04901	-2.43347	-111.081		-0.000171749	0.00854603	0.0500604		-0.384955	-0.286191	-9.72551		
1093455482.047		2.05577	-2.44601	-110.941		0.00949217	0.00317274	0.0433974		-0.490502	-0.353398	-9.80795		
1093455482.142		2.06865	-2.46715	-110.712		0.0044442	0.00860288	0.0220876		-0.394197	-0.386254	-9.75556		
1093455482.280		2.09674	-2.43956	-110.53		-0.00756599	0.00956581	0.0409235		-0.449861	-0.322495	-9.72511		
1093455482.342		2.11296	-2.40249	-110.385		0.00646761	0.00754873	0.0487467		-0.443143	-0.389158	-9.75345		
1093455482.445		2.13053	-2.38205	-110.096		0.00391265	0.000177483	0.0470526		-0.448929	-0.378851	-9.79295		
1093455482.542		2.12019	-2.3577	-109.804		0.0110455	0.00584477	0.0521372		-0.391741	-0.327027	-9.69888		
1093455482.642		2.13479	-2.36415	-109.66		0.00975374	0.00198529	0.0392357		-0.412318	-0.325811	-9.73318		
1093455482.742		2.11728	-2.33742	-109.339		-0.002254	0.00857682	0.0359895		-0.350428	-0.343648	-9.78799		
1093455482.848		2.15691	-2.3433	-109.193		0.00106299	0.0034901	0.0367193		-0.405666	-0.35275	-9.79677		
1093455482.942		2.1475	-2.28451	-109.015		-0.00859565	0.0103646	0.040502		-0.340779	-0.39343	-9.78688		
1093455483.045		2.15753	-2.22721	-108.806		0.00675838	0.0182591	0.02741		-0.366321	-0.374305	-9.76379		
1093455483.142		2.16316	-2.20968	-108.68		0.00550173	0.0185412	0.0357372		-0.420396	-0.314922	-9.77836		
1093455483.247		2.12534	-2.22215	-108.55		-0.0060789	0.00949586	0.0265145		-0.335677	-0.380938	-9.79795		
1093455483.342		2.12002	-2.22226	-108.379		0.00399176	0.00561098	0.0229432		-0.36797	-0.328518	-9.7512		
1093455483.446		2.09902	-2.22855	-108.264		-0.00269324	0.00678759	0.0337514		-0.315873	-0.427191	-9.83316		
1093455483.542		2.11307	-2.25976	-108.206		0.00265918	-0.00246627	0.0248699		-0.408888	-0.391511	-9.71206		
1093455483.686		2.1066	-2.26535	-107.981		-2.14588e-05	0.0110929	0.0240304		-0.325917	-0.416708	-9.75679		
1093455483.742		2.11432	-2.26405	-107.879		0.00337962	0.00699007	0.0308405		-0.411219	-0.372191	-9.73791		
1093455483.846		2.13103	-2.27333	-107.74		0.0138486	-0.00699825	0.0442286		-0.35446	-0.335665	-9.80831		
1093455483.942		2.16165	-2.29054	-107.54		0.0120741	0.0115714	0.0305833		-0.366943	-0.441622	-9.76868		
1093455484.047		2.1446	-2.30252	-107.403		0.00678992	0.00339778	0.0318899		-0.372615	-0.399186	-9.77084		
1093455484.142		2.12576	-2.30762	-107.254		-0.00190401	0.0013963	0.0376944		-0.349834	-0.363499	-9.77344		
1093455484.246		2.12099	-2.30954	-107.002		0.00415497	0.0133595	0.0353172		-0.330368	-0.353993	-9.73124		
1093455484.342		2.14885	-2.32663	-106.869		0.00352241	0.00122272	0.0242256		-0.312941	-0.430696	-9.79876		
1093455484.446		2.16095	-2.31497	-106.751		0.00322964	0.0096025	0.0210269		-0.373854	-0.3413	-9.82347		
1093455484.546		2.18529	-2.32276	-106.608		-0.00822934	0.00894911	0.0211876		-0.267237	-0.356621	-9.77446		
1093455484.646		2.22276	-2.30273	-106.568		0.00193282	0.00316964	0.0179358		-0.290553	-0.396883	-9.75727		
1093455484.742		2.27936	-2.28166	-106.514		0.00516801	-0.00644199	0.0373345		-0.308887	-0.370139	-9.81051		
1093455484.847		2.33306	-2.26839	-106.348		0.00214023	0.00136363	0.0234819		-0.29282	-0.390104	-9.75504		
1093455484.942		2.35664	-2.24465	-106.327		0.00797299	-0.00559451	0.0129978		-0.312824	-0.430794	-9.77829		
1093455485.048		2.36033	-2.22449	-106.276		0.00690335	-0.00400051	0.0136434		-0.378027	-0.310036	-9.70724		
1093455485.142		2.38435	-2.2229	-106.148		0.0137486	-0.0103863	0.0151021		-0.365751	-0.488634	-9.7625		
1093455485.247		2.41554	-2.19331	-106.111		0.0117334	0.000201411	0.0338917		-0.370196	-0.396537	-9.7156		
1093455485.342		2.42173	-2.15232	-106.089		0.0056879	-0.00233333	0.00842624		-0.402196	-0.517029	-9.73734		
1093455485.445		2.4082	-2.157	-105.997		-0.000100453	-0.0203734	0.00909503		-0.459046	-0.470764	-9.72165		
1093455485.542		2.43486	-2.1957	-106.03		0.0175761	-0.00537773	0.00249493		-0.432893	-0.391361	-9.77664		
1093455485.643		2.45511	-2.23371	-106.039		0.00901637	-0.0133522	0.00467149		-0.523686	-0.409965	-9.66479		
1093455485.742		2.44623	-2.27658	-105.997		0.00121873	-0.0151164	-0.00766378		-0.479076	-0.48985	-9.78511		
1093455485.845		2.4474	-2.30309	-106.09		0.0063422	-0.00199135	0.00639216		-0.475773	-0.438343	-9.61812		
1093455485.942		2.46144	-2.31476	-106.101		0.00683939	0.00907662	0.00446976		-0.435741	-0.433264	-9.76793		
1093455486.046		2.47494	-2.2996	-106.05		-0.00693785	0.0141452	0.0147805		-0.498771	-0.439209	-9.70822		
1093455486.142		2.50342	-2.26658	-106.143		0.0109035	0.0223421	-0.000457561		-0.353528	-0.528999	-9.86993		
1093455486.250		2.50635	-2.21965	-106.152		0.00283205	0.0147816	-0.00564421		-0.408863	-0.455474	-9.71333		
1093455486.342		2.52112	-2.22192	-106.155		0.00371147	0.0109959	-0.00682222		-0.324931	-0.455526	-9.83277		
1093455486.446		2.50606	-2.17756	-106.284		-0.00109678	0.017788	-0.012345		-0.377207	-0.433064	-9.80359		
1093455486.546		2.51091	-2.18095	-106.363		0.00112103	0.00168711	-0.0062721		-0.282905	-0.49617	-9.83438		
1093455486.646		2.50261	-2.16929	-106.363		-0.00965842	0.01027	-0.00877768		-0.361353	-0.459035	-9.80466		
1093455486.742		2.48873	-2.16426	-106.406		0.00250153	0.0135196	0.00716264		-0.264617	-0.489446	-9.80685		
1093455486.848		2.48233	-2.15402	-106.456		-0.00613559	0.0015301	-0.024584		-0.356751	-0.431911	-9.79201		
1093455486.942		2.47453	-2.17632	-106.444		0.000357618	0.00328638	-0.0081884		-0.302302	-0.397611	-9.87487		
1093455487.048		2.49669	-2.16865	-106.546		-0.000661114	-0.00636154	0.000666816		-0.363534	-0.418338	-9.80203		
1093455487.143		2.53496	-2.19159	-106.606		0.0100586	0.00353283	-0.0143219		-0.337522	-0.500753	-9.84967		
1093455487.247		2.55791	-2.15236	-106.643		0.00330125	-0.000501886	-0.00863008		-0.36566	-0.421988	-9.71675		
1093455487.342		2.59637	-2.10531	-106.785		0.0111339	0.00966609	-0.0109096		-0.322619	-0.452224	-9.79462		
1093455487.445		2.60586	-2.10051	-106.788		0.00231307	-0.00790908	0.00630957		-0.40232	-0.450051	-9.80115		
1093455487.542		2.63314	-2.06043	-106.79		0.0157161	0.00609867	-0.0034693		-0.317447	-0.42618	-9.80653		
1093455487.645		2.67192	-2.05181	-106.884		0.0142099	-0.0100559	0.000164896		-0.474693	-0.428074	-9.64337		
1093455487.742		2.66153	-2.03383	-106.875		-0.00575754	0.00627697	-0.0068773		-0.342286	-0.352922	-9.71802		
1093455487.847		2.66535	-2.04896	-106.899		-0.00775446	0.00369175	-0.00942755		-0.358378	-0.439947	-9.75832		
1093455487.943		2.66313	-2.06262	-107.017		0.00327392	0.00876629	-0.00777626		-0.389694	-0.35164	-9.78341		
1093455488.045		2.66724	-2.08222	-107.056		0.00228137	0.00665325	0.00182968		-0.403291	-0.425355	-9.74137		
1093455488.142		2.65186	-2.06123	-107.115		0.00324098	0.0210361	-0.0122562		-0.372549	-0.452499	-9.73285		
1093455488.247		2.61348	-2.05103	-107.282		-0.00150513	0.00583376	-0.0155436		-0.410148	-0.444528	-9.77297		
1093455488.342		2.58513	-2.06638	-107.397		-0.00498794	0.00982073	-0.0146725		-0.404571	-0.493068	-9.80687		
1093455488.443		2.60165	-2.10572	-107.513		-0.00204561	0.0154251	-0.025995		-0.400097	-0.511078	-9.83387		
1093455488.547		2.59154	-2.15455	-107.741		-0.0010893	5.81495e-05	-0.0183195		-0.417083	-0.464787	-9.80929		
1093455488.648		2.61441	-2.20846	-107.902		2.38653e-05	0.0034561	-0.0228055		-0.385661	-0.475086	-9.76125		
1093455488.743		2.62046	-2.281	-108.087		-0.000399941	-0.00720327	-0.0255772		-0.387401	-0.552057	-9.75609		
1093455488.845		2.64352	-2.33744	-108.357		0.000270675	0.0040678	-0.029314		-0.40691	-0.490726	-9.83169		
1093455488.943		2.66219	-2.40891	-108.538		-0.00489701	0.000924664	-0.02139		-0.405703	-0.426314	-9.79435		
1093455489.045		2.68909	-2.45443	-108.707		-0.0045358	0.0180944	-0.0334459		-0.398907	-0.508933	-9.78844		
1093455489.143		2.68942	-2.46379	-108.951		0.001347	0.00972026	-0.0342226		-0.373782	-0.520328	-9.75408		
1093455489.246		2.68607	-2.47495	-109.057		0.00144756	0.00384013	-0.0161986		-0.310029	-0.568322	-9.76658		
1093455489.343		2.71113	-2.49609	-109.175		0.00718462	6.04272e-05	-0.0213482		-0.419285	-0.455826	-9.78227		
1093455489.447		2.688	-2.52756	-109.431		0.000530758	0.0159317	-0.0304885		-0.344254	-0.48277	-9.8154		
1093455489.543		2.65449	-2.4919	-109.599		-0.00539584	0.00728257	-0.0398464		-0.308975	-0.449866	-9.8267		
1093455489.646		2.62703	-2.47991	-109.849		-0.00305863	0.00558894	-0.0408183		-0.369274	-0.502089	-9.80151		
1093455489.743		2.6086	-2.49812	-110.2		-0.00704477	0.00955884	-0.0501818		-0.361411	-0.426118	-9.83488		
1093455489.849		2.60539	-2.49296	-110.43		-0.018629	0.0187361	-0.0507631		-0.365948	-0.403495	-9.83375		
1093455489.943		2.58157	-2.44232	-110.678		-0.0142893	0.0208358	-0.0548387		-0.313551	-0.479341	-9.80354		
1093455490.047		2.58664	-2.39515	-111.006		-0.00962164	0.0113214	-0.0345938		-0.338585	-0.408041	-9.81618		
1093455490.143		2.58062	-2.35976	-111.182		-0.0122193	0.0173391	-0.0515423		-0.347821	-0.515475	-9.84177		
1093455490.245		2.58827	-2.29153	-111.413		9.51352e-05	0.0282838	-0.0450968		-0.299235	-0.506613	-9.76336		
1093455490.343		2.57852	-2.21097	-111.726		-0.0142793	0.026899	-0.0467311		-0.324419	-0.370568	-9.84939		
1093455490.446		2.57004	-2.15275	-111.985		-0.00895197	0.0235245	-0.0548656		-0.31927	-0.461194	-9.81823		
1093455490.543		2.53807	-2.12177	-112.249		-0.0100804	0.0285042	-0.0526196		-0.354925	-0.437725	-9.74414		
1093455490.647		2.51532	-2.08685	-112.642		-0.0132016	0.0220395	-0.0586846		-0.285091	-0.516109	-9.79457		
1093455490.743		2.49739	-2.05067	-112.946		-0.0132527	0.013999	-0.0560215		-0.317964	-0.448899	-9.78077		
1093455490.846		2.46468	-2.02847	-113.238		-0.0163793	0.0081088	-0.0508854		-0.342415	-0.426314	-9.77677		
1093455490.943		2.47751	-2.03311	-113.623		0.000988243	0.00758935	-0.0634505		-0.369036	-0.419212	-9.70218		
1093455491.046		2.48602	-2.04222	-113.933		-0.00277663	0.0181567	-0.0633245		-0.411182	-0.388093	-9.71998		
1093455491.143		2.332	-2.06575	-114.03		-0.0127707	-0.0125644	-0.0512203		-0.383962	0.117168	-9.87528		
1093455491.248		1.89623	-2.25799	-114.097		-0.0394169	-0.0273893	-0.0577002		-0.442085	0.160774	-9.91143		
1093455491.343		1.46284	-2.5101	-114.162		-0.0655122	-0.0434616	-0.0400737		-0.542667	-0.0417284	-9.80139		
1093455491.446		1.02882	-2.77744	-114.297		-0.0720464	-0.0470955	-0.0456986		-0.53798	-0.0452383	-9.77407		
1093455491.543		0.595837	-3.00944	-114.553		-0.0960766	-0.0295392	-0.0462168		-0.450577	-0.125937	-9.63041		
1093455491.645		0.168487	-3.21797	-114.701		-0.0945649	-0.0367373	-0.036517		-0.582855	-0.0793933	-9.73093		
1093455491.743		-0.261014	-3.34522	-114.9		-0.0893072	-0.014547	-0.0383525		-0.588499	-0.0262896	-9.6989		
1093455491.865		-0.648107	-3.41087	-115.146		-0.0792934	-0.0123491	-0.0430969		-0.576672	0.116585	-9.78113		
1093455491.943		-0.999995	-3.42709	-115.303		-0.0827371	-0.00238531	-0.0404123		-0.555581	0.105814	-9.76602		
1093455492.050		-1.24737	-3.40848	-115.465		-0.0622705	0.00314917	-0.022807		-0.609127	0.196961	-9.80404		
1093455492.143		-1.38193	-3.38161	-115.794		-0.034466	0.00876263	-0.0442828		-0.564713	0.209458	-9.80003		
1093455492.247		-1.41051	-3.31291	-116.055		-0.0188333	0.00232625	-0.0496997		-0.565097	0.238715	-9.7597		
1093455492.343		-1.33462	-3.23223	-116.37		0.00167213	0.020275	-0.0578036		-0.581153	0.214499	-9.80078		
1093455492.447		-1.18177	-3.12221	-116.758		0.0187565	0.015097	-0.0642907		-0.546278	0.234165	-9.74461		
1093455492.543		-0.926592	-3.00543	-117.11		0.0331562	0.0284266	-0.0548687		-0.536181	0.159627	-9.78529		
1093455492.648		-0.611531	-2.84481	-117.419		0.0475897	0.0270239	-0.054835		-0.528243	0.137027	-9.79196		
1093455492.743		-0.266501	-2.6704	-117.838		0.0599222	0.0355657	-0.0433758		-0.486132	0.0759423	-9.78109		
1093455492.847		0.114824	-2.48773	-118.12		0.0629936	0.0438451	-0.0470181		-0.437275	0.0291327	-9.80655		
1093455492.943		0.477031	-2.29447	-118.459		0.0525835	0.0360659	-0.0609366		-0.425992	-0.0313637	-9.80623		
1093455493.048		0.834976	-2.09072	-118.878		0.0694313	0.0378812	-0.0748898		-0.385027	-0.0471409	-9.80865		
1093455493.139		1.17135	-1.93941	-119.199		0.054698	0.030409	-0.0546574		-0.364432	-0.109481	-9.77898		
1093455493.245		1.49809	-1.82392	-119.601		0.0480794	0.0224543	-0.062305		-0.351369	-0.171713	-9.77561		
1093455493.343		1.79067	-1.75556	-120.029		0.0551115	0.019456	-0.060207		-0.353671	-0.221513	-9.77425		
1093455493.447		2.02759	-1.72587	-120.397		0.041644	0.00178598	-0.0625892		-0.318516	-0.280234	-9.78739		
1093455493.543		2.19053	-1.75317	-120.851		0.0352125	9.19068e-05	-0.0612766		-0.307692	-0.305145	-9.77824		
1093455493.642		2.29804	-1.78235	-121.277		0.0227529	-0.00427066	-0.0693213		-0.323597	-0.351642	-9.75469		
1093455493.743		2.35565	-1.82777	-121.591		0.0157156	-0.00777487	-0.060325		-0.304227	-0.352771	-9.74745		
1093455493.846		2.37211	-1.88829	-122.046		0.0160532	-0.00356987	-0.0691808		-0.318458	-0.364113	-9.74562		
1093455493.939		2.33213	-2.00085	-122.473		-0.00512426	-0.0153293	-0.0653405		-0.362285	-0.355114	-9.74782		
1093455494.039		2.25615	-2.09533	-122.781		-0.0201361	-0.0156472	-0.05289		-0.350304	-0.337581	-9.74066		
1093455494.139		2.13245	-2.20177	-123.196		-0.025246	-0.016922	-0.0616118		-0.363371	-0.325739	-9.73418		
1093455494.247		1.97971	-2.32521	-123.556		-0.0177844	-0.0296879	-0.059943		-0.383872	-0.312164	-9.74138		
1093455494.339		1.84549	-2.451	-123.871		-0.0254905	-0.010621	-0.0716381		-0.411192	-0.287288	-9.74701		
1093455494.439		1.6738	-2.55826	-124.319		-0.029234	-0.0204857	-0.0723662		-0.437378	-0.27826	-9.75045		
1093455494.539		1.45623	-2.6627	-124.721		-0.0427012	-0.0157106	-0.064724		-0.456655	-0.247807	-9.72826		
1093455494.643		1.24675	-2.76453	-125.075		-0.0383887	-0.0135536	-0.048744		-0.478336	-0.231915	-9.75237		
1093455494.739		1.04976	-2.84748	-125.489		-0.0353178	-0.0143388	-0.0552669		-0.4578	-0.158333	-9.75144		
1093455494.841		0.829936	-2.92027	-125.876		-0.0438244	-0.0152218	-0.0599178		-0.487416	-0.143627	-9.76225		
1093455494.939		0.605205	-2.96256	-126.198		-0.0453715	-0.00974942	-0.054896		-0.507913	-0.0700362	-9.78152		
1093455495.039		0.391665	-2.98114	-126.625		-0.0485385	0.00055202	-0.0705613		-0.491394	-0.0502112	-9.78099		
1093455495.143		0.202771	-2.99888	-126.995		-0.0430388	-0.00697496	-0.0763538		-0.512358	-0.0140703	-9.77774		
1093455495.248		0.0287748	-3.01337	-127.382		-0.0450812	-0.00229816	-0.0720762		-0.515781	0.0351987	-9.7922		
1093455495.339		-0.105383	-2.9918	-127.898		-0.03274	0.00179972	-0.080246		-0.539632	-0.00454357	-9.7615		
1093455495.439		-0.172267	-2.94456	-128.294		-0.0194541	0.000485699	-0.0747659		-0.528281	0.0385491	-9.78406		
1093455495.539		-0.213203	-2.8912	-128.643		-0.0144875	0.0176241	-0.0730836		-0.494113	0.0702849	-9.7847		
1093455495.639		-0.230608	-2.83673	-129.097		-0.0143123	0.0176984	-0.0611366		-0.535118	0.0674278	-9.79364		
1093455495.739		-0.211574	-2.76486	-129.435		-0.0035211	0.0166856	-0.0560706		-0.50607	0.0651769	-9.78503		
1093455495.842		-0.156277	-2.6601	-129.779		0.00698605	0.0177735	-0.0545235		-0.482698	0.0691273	-9.77203		
1093455495.939		-0.0893579	-2.56077	-130.157		0.0187328	0.00498683	-0.0624734		-0.460041	0.0975615	-9.79627		
1093455496.040		0.00353688	-2.4628	-130.512		0.0146713	0.0195832	-0.0820812		-0.443001	0.0319468	-9.79506		
1093455496.139		0.108578	-2.37241	-130.942		0.021612	0.0193707	-0.0775291		-0.404205	0.03811	-9.76026		
1093455496.241		0.244607	-2.26236	-131.445		0.0246546	0.0175931	-0.0860787		-0.388314	0.017241	-9.77348		
1093455496.339		0.390371	-2.17773	-131.879		0.0296323	0.0227362	-0.0682885		-0.403672	-0.0552733	-9.75288		
1093455496.440		0.533269	-2.1106	-132.292		0.0211609	0.0161445	-0.0601384		-0.357623	-0.0358856	-9.77861		
1093455496.539		0.678223	-2.06342	-132.724		0.028271	0.0164865	-0.0821499		-0.38316	-0.0609341	-9.74337		
1093455496.639		0.836015	-2.06693	-133.061		0.0350597	-0.00158764	-0.0683166		-0.379201	-0.0812811	-9.74845		
1093455496.739		0.996457	-2.10696	-133.556		0.0446288	-0.00139612	-0.0668715		-0.380412	-0.137813	-9.76399		
1093455496.845		1.14529	-2.14802	-134.038		0.0210907	-0.00917658	-0.0586453		-0.38498	-0.153656	-9.76588		
1093455496.939		1.30025	-2.20666	-134.354		0.024917	-0.00477777	-0.0657052		-0.393003	-0.170017	-9.78363		
1093455497.039		1.41256	-2.28299	-134.816		0.0176484	-0.00815422	-0.0699357		-0.397008	-0.20114	-9.78446		
1093455497.139		1.49311	-2.34346	-135.253		0.0153658	-0.00809856	-0.0772889		-0.40432	-0.204608	-9.77489		
1093455497.239		1.55213	-2.39828	-135.628		0.00584882	-2.59388e-05	-0.074467		-0.394587	-0.230715	-9.74664		
1093455497.339		1.55928	-2.45542	-136.183		0.00324887	-0.00717749	-0.0570617		-0.447054	-0.249395	-9.75729		
1093455497.440		1.53515	-2.51329	-136.619		-0.0113014	-0.00815001	-0.0650957		-0.423185	-0.258941	-9.76912		
1093455497.539		1.50212	-2.5658	-136.948		-0.0140256	-0.0178994	-0.0734031		-0.418612	-0.197805	-9.77543		
1093455497.640		1.41935	-2.68033	-137.488		-0.0160137	-0.0183969	-0.073393		-0.451033	-0.225625	-9.76064		
1093455497.739		1.34152	-2.75495	-137.972		-0.0085075	-0.00971869	-0.0781245		-0.465763	-0.238759	-9.73069		
1093455497.843		1.23192	-2.8278	-138.449		-0.0290775	-0.0106856	-0.0874083		-0.465842	-0.236391	-9.76221		
1093455497.939		1.09492	-2.86318	-138.988		-0.0303375	0.000841942	-0.0705465		-0.462423	-0.20638	-9.76759		
1093455498.039		0.989308	-2.87656	-139.383		-0.0199062	-0.00306386	-0.0643054		-0.482907	-0.159985	-9.77574		
1093455498.139		0.843057	-2.8711	-139.709		-0.0288895	-0.00614856	-0.0646868		-0.456702	-0.12487	-9.77488		
1093455498.239		0.702978	-2.88375	-140.186		-0.0321785	-0.00913389	-0.0662704		-0.495393	-0.127773	-9.76913		
1093455498.339		0.589063	-2.89965	-140.521		-0.0254964	-0.00978801	-0.0700418		-0.493023	-0.0870672	-9.76751		
1093455498.443		0.479201	-2.9159	-140.95		-0.0169632	0.00137458	-0.0714714		-0.496444	-0.0768723	-9.77205		
1093455498.539		0.359218	-2.9186	-141.513		-0.0173754	0.00892701	-0.0604813		-0.48732	-0.066123	-9.76782		
1093455498.643		0.25972	-2.86371	-141.765		-0.0216379	0.0171276	-0.0251493		-0.508259	-0.0436583	-9.72601		
1093455498.739		0.203429	-2.8073	-141.996		-0.0216945	0.00964893	-0.0237624		-0.479377	-0.0587178	-9.7794		
1093455498.839		0.120883	-2.72389	-142.247		-0.0149755	0.0144658	-0.011951		-0.501528	-0.028285	-9.74285		
1093455498.939		0.0833292	-2.6626	-142.354		-0.0198852	0.00654728	-0.0371024		-0.492008	-0.139055	-9.77811		
1093455499.039		0.109347	-2.60177	-142.722		-0.00403296	0.0147275	-0.0440096		-0.521478	0.0340113	-9.76835		
1093455499.139		0.134178	-2.52828	-143.089		0.00318851	0.0134818	-0.0509841		-0.417931	-0.0166962	-9.79899		
1093455499.241		0.171834	-2.42207	-143.316		0.000734574	0.0184407	-0.0385969		-0.421862	-0.0179039	-9.7777		
1093455499.339		0.232007	-2.33395	-143.663		0.0243224	0.0198851	-0.0386054		-0.393981	-0.00544911	-9.75855		
1093455499.439		0.325935	-2.24791	-143.898		0.0230378	0.0155631	-0.0213173		-0.425926	-0.0269192	-9.78144		
1093455499.539		0.435615	-2.18276	-144.033		0.0100133	0.0110813	-0.0199715		-0.410582	-0.0642384	-9.78237		
1093455499.640		0.509069	-2.13873	-144.28		0.00911804	0.00709735	-0.0212472		-0.382658	-0.0574491	-9.77036		
1093455499.739		0.62915	-2.16053	-144.55		0.0207927	-0.00561648	-0.0452023		-0.379324	-0.0686638	-9.79961		
1093455499.843		0.711491	-2.18102	-144.756		0.00256897	-0.000841813	-0.0362559		-0.384408	-0.0992987	-9.77739		
1093455499.939		0.784417	-2.22669	-145.143		0.0267014	-0.00184066	-0.040965		-0.367306	-0.128188	-9.76022		
1093455500.040		0.881715	-2.26256	-145.404		0.0090108	-0.00526233	-0.0213537		-0.367894	-0.126465	-9.76811		
1093455500.139		0.968448	-2.28647	-145.565		0.0166557	-7.67617e-05	-0.0242725		-0.371371	-0.161498	-9.78415		
1093455500.239		1.02383	-2.31429	-145.83		0.00355186	-0.00355455	-0.0263399		-0.421971	-0.158244	-9.76291		
1093455500.339		1.06494	-2.36598	-146.008		0.000383423	-0.0120386	-0.0201369		-0.388465	-0.173389	-9.78859		
1093455500.439		1.08455	-2.43623	-146.206		-0.00732766	-0.00902539	-0.0291654		-0.416815	-0.154884	-9.75038		
1093455500.539		1.10167	-2.53861	-146.549		0.00815516	-0.0205894	-0.0321242		-0.393005	-0.358576	-9.74074		
1093455500.640		1.17222	-2.62902	-146.935		0.00878463	-0.0174	-0.0321273		-0.403904	-0.202197	-9.80998		
1093455500.739		1.21248	-2.69672	-147.213		0.00803118	-0.00800228	-0.0452446		-0.475953	-0.214496	-9.7145		
1093455500.843		1.26309	-2.72309	-147.581		0.0132018	0.00605169	-0.0462304		-0.451603	-0.214866	-9.76342		
1093455500.939		1.28118	-2.74299	-147.892		0.00215962	-0.00394852	-0.0282531		-0.466949	-0.221711	-9.75315		
1093455501.039		1.30895	-2.74619	-148.092		0.00991655	0.000733193	-0.0286122		-0.446568	-0.210781	-9.79873		
1093455501.140		1.32506	-2.72678	-148.351		0.0122433	-0.000497678	-0.012729		-0.446505	-0.217093	-9.7723		
1093455501.247		1.32742	-2.71615	-148.564		0.000373161	-0.00107506	-0.0197098		-0.458452	-0.232406	-9.7665		
1093455501.339		1.30213	-2.70411	-148.688		0.0055243	-0.0029399	-0.0162194		-0.472615	-0.239819	-9.76445		
1093455501.442		1.25675	-2.68299	-148.986		-0.0125084	0.00403817	-0.0122877		-0.462972	-0.228438	-9.7799		
1093455501.539		1.20871	-2.65094	-149.195		-0.00143004	0.00931975	-0.0327151		-0.447635	-0.194454	-9.77446		
1093455501.639		1.12548	-2.61723	-149.382		-0.00522473	0.00362693	-0.0265088		-0.451062	-0.192179	-9.7796		
1093455501.741		1.06227	-2.58249	-149.676		-0.0122807	0.00811314	-0.0251929		-0.423761	-0.209102	-9.7835		
1093455501.843		0.963633	-2.51478	-149.862		-0.0166782	0.00530087	-0.0140763		-0.413496	-0.170042	-9.78471		
1093455501.939		0.841624	-2.47302	-149.987		-0.0140615	0.00571003	-0.0196367		-0.427057	-0.144709	-9.75171		
1093455502.040		0.743533	-2.44102	-150.24		-0.0229974	0.00969312	-0.0156444		-0.414554	-0.124282	-9.76366		
1093455502.139		0.645182	-2.4559	-150.421		-0.0225372	-0.00444681	-0.0224745		-0.38384	-0.112887	-9.77464		
1093455502.240		0.57274	-2.48211	-150.572		-0.0145597	-0.00125968	-0.0231547		-0.426534	-0.110674	-9.77741		
1093455502.339		0.506154	-2.49828	-150.833		-0.00880467	-0.000957593	-0.0259574		-0.42825	-0.101605	-9.78303		
1093455502.440		0.460206	-2.50122	-151.026		-0.00809844	0.00461067	-0.0196668		-0.437324	-0.0982631	-9.77086		
1093455502.540		0.423257	-2.52866	-151.198		-0.00901234	-0.00554241	-0.0260632		-0.434948	-0.0734745	-9.73745		
1093455502.639		0.368786	-2.5205	-151.434		-0.0194099	0.00748855	-0.0109687		-0.426475	-0.0699808	-9.76367		
1093455502.739		0.337866	-2.52144	-151.586		-0.019591	0.0039253	-0.0228091		-0.431028	-0.0575298	-9.76653		
1093455502.840		0.320374	-2.52823	-151.745		-0.000691736	-0.00407748	-0.0137305		-0.414509	-0.0450659	-9.76436		
1093455502.939		0.308862	-2.54955	-151.981		-0.00246013	-0.000880638	-0.0167085		-0.449818	-0.0360298	-9.77422		
1093455503.044		0.308129	-2.5462	-152.085		-0.00266664	-0.00758191	-0.00582652		-0.445818	-0.0428403	-9.76627		
1093455503.140		0.33746	-2.55454	-152.243		0.00254265	0.00521933	-0.027188		-0.422466	-0.0439597	-9.76005		
1093455503.242		0.400753	-2.57209	-152.493		0.015124	-0.0018914	-0.0142371		-0.436114	-0.0530548	-9.75313		
1093455503.339		0.472147	-2.58888	-152.622		0.0100235	0.00308456	-0.009304		-0.467422	-0.0666849	-9.75119		
1093455503.442		0.526444	-2.6082	-152.81		0.0115374	0.001908	-0.0189127		-0.457261	-0.0841144	-9.7803		
1093455503.539		0.596669	-2.62822	-153.035		0.0089257	-0.000552245	-0.0148497		-0.453777	-0.0926398	-9.77667		
1093455503.640		0.642582	-2.6314	-153.168		0.0111701	0.00304924	-0.0215816		-0.458878	-0.0751215	-9.7722		
1093455503.739		0.704492	-2.63214	-153.371		0.0148132	0.00380293	-0.00175796		-0.454298	-0.108558	-9.75426		
1093455503.840		0.766656	-2.63943	-153.62		0.0231914	0.000720172	-0.0255856		-0.447556	-0.119813	-9.76054		
1093455503.939		0.806067	-2.65236	-153.744		0.00320926	-0.00356183	-0.0228178		-0.433403	-0.112898	-9.79223		
1093455504.040		0.85021	-2.66292	-153.986		0.00734563	0.00633621	-0.0379867		-0.476012	-0.110795	-9.76178		
1093455504.139		0.881699	-2.66263	-154.334		0.000777991	0.00034278	-0.0303796		-0.46008	-0.171923	-9.74932		
1093455504.242		0.897479	-2.67045	-154.479		0.0032344	0.00560958	-0.0233511		-0.438469	-0.15658	-9.75995		
1093455504.340		0.895375	-2.66895	-154.71		-0.0107065	0.0037153	-0.0198671		-0.461221	-0.1538	-9.75488		
1093455504.440		0.925478	-2.6715	-154.914		0.00198054	0.0118664	-0.0122501		-0.463009	-0.154831	-9.7859		
1093455504.540		0.928972	-2.64546	-155.019		0.00162567	0.00408385	-0.00851482		-0.428851	-0.172912	-9.77893		
1093455504.640		0.91247	-2.63686	-155.266		-0.003045	0.00212394	-0.0233195		-0.456684	-0.16623	-9.75821		
1093455504.740		0.898917	-2.6378	-155.472		-0.0063122	0.00213005	-0.0254365		-0.457317	-0.154823	-9.78575		
1093455504.840		0.861307	-2.59375	-155.609		-0.00863217	0.0126144	-0.0150807		-0.445824	-0.169618	-9.76507		
1093455504.940		0.838733	-2.55193	-155.879		-0.00611821	0.000669945	-0.0236279		-0.441824	-0.171898	-9.75822		
1093455505.042		0.812615	-2.50804	-156.063		-0.00612826	0.0120322	-0.0232009		-0.440646	-0.142503	-9.74959		
1093455505.140		0.757611	-2.48799	-156.183		-0.00735982	-0.00193188	-0.0185012		-0.409931	-0.13224	-9.76		
1093455505.240		0.703431	-2.46934	-156.405		-0.00405322	0.0120127	-0.0144638		-0.411123	-0.126509	-9.78252		
1093455505.340		0.649558	-2.46505	-156.525		-0.00783823	0.00330594	-0.0155078		-0.421467	-0.115125	-9.79813		
1093455505.440		0.604035	-2.46344	-156.693		-0.0205297	-0.00168503	-0.00914983		-0.411106	-0.0982732	-9.75668		
1093455505.540		0.570657	-2.48389	-156.908		-0.00779564	-0.0068643	-0.0140148		-0.416804	-0.103935	-9.75798		
1093455505.643		0.548337	-2.50831	-157.006		-0.00361365	-0.0049727	-0.0139292		-0.447569	-0.101675	-9.77001		
1093455505.740		0.513094	-2.53342	-157.151		-0.010566	-0.00148918	-0.00984021		-0.438427	-0.0920817	-9.75847		
1093455505.843		0.464049	-2.53874	-157.392		-0.0125594	-6.97204e-05	-0.0207112		-0.427098	-0.0823697	-9.78177		
1093455505.940		0.462886	-2.55497	-157.501		-0.00691023	0.00130541	-0.0124189		-0.427084	-0.0591717	-9.78164		
1093455506.041		0.448015	-2.5739	-157.721		-0.0059881	0.00690898	-0.0228778		-0.430495	-0.0665428	-9.77839		
1093455506.140		0.425143	-2.56871	-157.914		-0.00805997	0.00770853	-0.0234007		-0.431653	-0.0416041	-9.7918		
1093455506.240		0.438785	-2.57552	-158.038		0.00169265	-0.0055341	-0.0325179		-0.433911	-0.0614495	-9.78014		
1093455506.340		0.457674	-2.58269	-158.251		-0.000452017	0.00748629	-0.0143715		-0.412269	-0.0597384	-9.77507		
1093455506.440		0.478938	-2.58469	-158.44		0.00992543	-0.00208055	-0.0178379		-0.445284	-0.0643103	-9.77538		
1093455506.540		0.47407	-2.5975	-158.545		-0.0134577	-0.00285189	-0.0246538		-0.45669	-0.0597672	-9.78522		
1093455506.640		0.476456	-2.61856	-158.774		0.00435529	-0.00426622	-0.0199433		-0.476574	-0.0462533	-9.77383		
1093455506.740		0.507133	-2.64571	-158.972		0.00395891	0.00206231	-0.0245322		-0.457736	-0.0904135	-9.76719		
1093455506.844		0.559406	-2.64712	-159.131		0.00305309	0.00423422	-0.0143932		-0.461174	-0.0926533	-9.77574		
1093455506.940		0.59237	-2.62268	-159.361		-0.00154811	0.00104702	-0.0144767		-0.442931	-0.0994599	-9.76292		
1093455507.041		0.611706	-2.60587	-159.477		0.00430428	0.003735	-0.0142928		-0.458857	-0.091569	-9.76047		
1093455507.140		0.661892	-2.58607	-159.59		0.00729365	0.00313299	-0.0131345		-0.442956	-0.106223	-9.77084		
1093455507.240		0.697839	-2.56673	-159.803		0.00825466	0.00401315	-0.00535187		-0.423578	-0.103964	-9.76132		
1093455507.340		0.731269	-2.53031	-159.922		0.00905918	0.0131222	-0.0237042		-0.430397	-0.113615	-9.7548		
1093455507.445		0.753489	-2.5299	-160.048		0.011916	0.00801581	-0.0135844		-0.42301	-0.0971666	-9.76353		
1093455507.540		0.810598	-2.53779	-160.287		0.0104813	-0.00196089	-0.00899032		-0.447502	-0.123226	-9.76429		
1093455507.643		0.839045	-2.52011	-160.379		0.00762046	0.00383711	-0.0162298		-0.438453	-0.132198	-9.78494		
1093455507.740		0.889549	-2.50327	-160.551		0.0174208	-5.68782e-05	-0.015426		-0.408288	-0.269185	-9.75395		
1093455507.843		0.96143	-2.4599	-160.835		0.0105035	0.0178225	-0.0313922		-0.407346	-0.159079	-9.85578		
1093455507.940		1.00052	-2.46308	-160.986		-0.00134925	0.00186126	-0.0224785		-0.427088	-0.198976	-9.77657		
1093455508.040		1.04885	-2.44863	-161.189		0.0157379	0.00150228	-0.016587		-0.403239	-0.197791	-9.77334		
1093455508.140		1.10898	-2.44217	-161.401		0.0164659	0.000112083	-0.0192576		-0.399851	-0.208508	-9.78176		
1093455508.243		1.14802	-2.44837	-161.48		0.00130854	0.00400842	-0.00147639		-0.429383	-0.222737	-9.77845		
1093455508.340		1.15578	-2.42768	-161.619		-0.000925642	0.00543792	-0.01704		-0.432198	-0.201265	-9.77108		
1093455508.440		1.129	-2.43599	-161.718		-0.00726024	0.00181452	0.00102041		-0.419679	-0.19275	-9.77409		
1093455508.540		1.08543	-2.46391	-161.759		-0.0127361	0.000443143	-0.00908635		-0.412876	-0.186476	-9.78627		
1093455508.640		1.0119	-2.48095	-161.904		-0.00696138	-0.00436042	-0.00143486		-0.413999	-0.177437	-9.78231		
1093455508.740		0.93555	-2.47465	-161.992		-0.0124169	-0.00227802	-0.0134579		-0.391794	-0.16218	-9.75766		
1093455508.845		0.888022	-2.46316	-162.035		-0.0109789	0.00877776	-0.00983783		-0.412858	-0.15371	-9.76153		
1093455508.940		0.824479	-2.47734	-162.179		-0.0191766	-0.0106859	0.00471118		-0.437233	-0.128958	-9.72824		
1093455509.042		0.754029	-2.50637	-162.227		-0.0104308	-0.0047642	0.00178298		-0.438378	-0.13909	-9.75401		
1093455509.140		0.696458	-2.54009	-162.261		-0.00318218	-0.0108404	-0.00188084		-0.440656	-0.115876	-9.75958		
1093455509.245		0.660739	-2.55785	-162.415		-0.0139216	0.000100974	-0.00683624		-0.420229	-0.10506	-9.76145		
1093455509.340		0.606347	-2.58898	-162.467		-0.00522943	-0.00108721	-0.0126408		-0.454922	-0.0949512	-9.75328		
1093455509.482		0.568899	-2.59374	-162.587		-0.00996586	-0.00108648	-0.0118701		-0.430494	-0.0840977	-9.77398		
1093455509.540		0.566766	-2.59424	-162.777		-0.00639128	0.00542751	-0.0108251		-0.461153	-0.100608	-9.76565		
1093455509.640		0.56194	-2.60936	-162.861		0.00158115	0.00161965	-0.00318468		-0.449178	-0.0983552	-9.75745		
1093455509.740		0.596875	-2.60487	-162.995		0.0057907	0.0044794	-0.00800245		-0.460127	-0.0954175	-9.7855		
1093455509.843		0.622271	-2.61024	-163.199		0.00524592	0.00688815	-0.0156804		-0.447677	-0.112861	-9.80948		
1093455509.940		0.651121	-2.61403	-163.253		0.00155693	-0.000756349	-0.0108654		-0.458946	-0.112971	-9.79043		
1093455510.040		0.668263	-2.62531	-163.399		-0.000951305	0.00601119	-0.00530532		-0.470268	-0.109669	-9.76705		
1093455510.140		0.695273	-2.6102	-163.582		0.00337848	0.00472139	-0.00916762		-0.456654	-0.119784	-9.78252		
1093455510.243		0.691503	-2.60128	-163.641		-2.37359e-05	0.00831413	-0.0104305		-0.468057	-0.114111	-9.79179		
1093455510.340		0.710382	-2.56556	-163.816		0.00185057	0.0134019	-0.0128934		-0.45385	-0.123122	-9.79823		
1093455510.440		0.695428	-2.53869	-163.96		-0.000560904	0.00277806	-0.0032766		-0.437365	-0.112933	-9.78332		
1093455510.540		0.693876	-2.50984	-164.039		0.000786991	0.00846982	-0.00840378		-0.437915	-0.109561	-9.77656		
1093455510.644		0.689847	-2.49771	-164.225		-0.00840516	0.00449986	-0.0143314		-0.421939	-0.109023	-9.76152		
1093455510.740		0.674928	-2.49959	-164.332		-0.00740488	0.00487214	-0.00206853		-0.43905	-0.118627	-9.77327		
1093455510.844		0.654608	-2.50017	-164.427		-0.000196911	0.00849715	-0.0210934		-0.422551	-0.108402	-9.77842		
1093455510.940		0.627731	-2.50538	-164.623		-0.00665334	-0.0010784	-0.016474		-0.423654	-0.100521	-9.76658		
1093455511.040		0.618399	-2.52884	-164.753		-0.00271818	-0.00306438	-0.0209744		-0.416777	-0.106236	-9.74673		
1093455511.140		0.614531	-2.53472	-164.901		-0.00680966	0.00288823	-0.0067654		-0.43158	-0.117575	-9.74605		
1093455511.245		0.639258	-2.56685	-165.127		-0.0064991	-0.00408345	-0.00954079		-0.439627	-0.117485	-9.77665		
1093455511.340		0.666749	-2.5648	-165.251		0.00966165	0.000912595	-0.0191166		-0.426549	-0.125378	-9.77974		
1093455511.442		0.707174	-2.58892	-165.381		0.000958992	-0.00228546	-0.0130988		-0.462386	-0.129985	-9.77055		
1093455511.540		0.746481	-2.58989	-165.616		0.00314276	0.00210423	-0.0154566		-0.427634	-0.128845	-9.75839		
1093455511.641		0.755223	-2.56833	-165.665		0.00473226	0.00596266	-0.00212979		-0.414579	-0.127647	-9.77269		
1093455511.740		0.78851	-2.54998	-165.754		0.000891413	0.00648796	-0.0139516		-0.4459	-0.112948	-9.78242		
1093455511.844		0.830954	-2.56245	-165.907		0.0110684	0.000691801	-0.00930934		-0.429456	-0.140591	-9.80016		
1093455511.940		0.850776	-2.53828	-165.937		-0.00205352	0.00946708	-0.00796269		-0.423123	-0.132181	-9.77406		
1093455512.045		0.853641	-2.5292	-166.05		-0.00842113	0.00806388	-0.00281005		-0.437382	-0.132163	-9.78568		
1093455512.140		0.863383	-2.5171	-166.243		-0.0116023	0.00279202	-0.00727459		-0.449239	-0.306708	-9.70812		
1093455512.244		0.897116	-2.52677	-166.359		0.00769047	-0.00871794	-0.0182574		-0.450821	-0.115994	-9.72831		
1093455512.340		0.903559	-2.54004	-166.513		0.00779572	0.000745236	-0.0153773		-0.437974	-0.178513	-9.80939		
1093455512.446		0.904993	-2.54108	-166.712		-0.00165611	-0.00128741	-0.0130855		-0.496541	-0.18099	-9.76044		
1093455512.540		0.889994	-2.54728	-166.76		0.00201309	0.000481979	-0.00222289		-0.451575	-0.170169	-9.76261		
1093455512.644		0.86578	-2.54231	-166.888		-0.014203	0.00129318	-0.00491459		-0.468096	-0.163945	-9.76975		
1093455512.740		0.883179	-2.49499	-167.021		0.00528806	0.0101923	-0.00426994		-0.407093	-0.165068	-9.75561		
1093455512.842		0.909538	-2.46057	-167.05		0.0130115	0.021738	0.00187868		-0.439589	-0.176937	-9.77339		
1093455512.940		0.895756	-2.44307	-167.18		-0.00881398	0.00907393	-0.00899534		-0.41853	-0.134491	-9.75819		
1093455513.042		0.906363	-2.44051	-167.329		-0.00435765	0.00587397	-0.00517754		-0.411185	-0.162723	-9.77279		
1093455513.140		0.919132	-2.43367	-167.35		0.0118799	-0.000810969	-0.0058998		-0.43164	-0.137883	-9.76474		
1093455513.245		0.907622	-2.44063	-167.461		0.00440896	0.00383462	-0.0142934		-0.405414	-0.178619	-9.76352		
1093455513.340		0.912375	-2.45632	-167.549		0.00195758	-0.00657368	0.00609414		-0.41512	-0.118571	-9.78934		
1093455513.445		0.891659	-2.47891	-167.598		0.000352659	-0.00235353	-0.00947257		-0.444083	-0.123227	-9.76252		
1093455513.540		0.854435	-2.48711	-167.703		-0.00555632	0.00243092	-0.00805578		-0.424774	-0.123144	-9.77947		
1093455513.640		0.848138	-2.50753	-167.848		-0.00489732	0.00123042	-0.00613895		-0.423638	-0.141259	-9.77617		
1093455513.740		0.857227	-2.52084	-167.904		0.00823851	0.00242915	-0.0104724		-0.428149	-0.137357	-9.7605		
1093455513.844		0.85895	-2.54723	-168.083		-0.00149413	-0.00135969	-0.00764969		-0.417911	-0.170175	-9.75591		
1093455513.940		0.853009	-2.54844	-168.226		-0.00629046	0.00345129	-0.0190398		-0.429293	-0.141315	-9.76167		
1093455514.044		0.847255	-2.55991	-168.303		-0.00451607	-0.00952496	-0.010835		-0.427591	-0.123185	-9.76829		
1093455514.140		0.851746	-2.57218	-168.461		-0.0026164	-0.00112368	0.00398775		-0.413414	-0.149765	-9.75702		
1093455514.241		0.831401	-2.59699	-168.527		-0.00576738	-0.00290527	-0.00122359		-0.4226	-0.151373	-9.78766		
1093455514.340		0.817658	-2.62334	-168.573		0.0021517	-0.00152719	0.00513711		-0.432803	-0.118034	-9.77873		
1093455514.443		0.823331	-2.66939	-168.74		-0.000167739	-0.0139036	-0.0152309		-0.429354	-0.133308	-9.78753		
1093455514.540		0.834597	-2.70698	-168.84		0.00740771	-0.00105869	-0.0106816		-0.446388	-0.158867	-9.76559		
1093455514.645		0.848393	-2.71539	-168.936		-0.00286871	-0.010859	-0.0115862		-0.448702	-0.134527	-9.76009		
1093455514.740		0.834838	-2.73208	-169.142		-0.00909197	0.00228655	-0.00451366		-0.484077	-0.126537	-9.79585		
1093455514.840		0.846254	-2.73649	-169.23		0.00755868	-0.00109797	-0.0105718		-0.460102	-0.123196	-9.76933		
1093455514.940		0.860702	-2.74294	-169.318		0.00954398	0.000800569	-0.0132487		-0.471439	-0.150452	-9.745		
1093455515.044		0.848128	-2.71997	-169.499		0.0064611	0.0102509	-0.00352521		-0.461247	-0.128852	-9.77051		
1093455515.140		0.825234	-2.68378	-169.565		-1.20539e-05	0.0138372	-0.00103883		-0.48064	-0.13109	-9.78622		
1093455515.245		0.788754	-2.67321	-169.638		-0.0125156	0.00447683	-0.00246944		-0.448717	-0.112989	-9.77123		
1093455515.340		0.762098	-2.64519	-169.799		-0.0111225	0.00725718	0.00221742		-0.484008	-0.131722	-9.76773		
1093455515.443		0.738814	-2.6357	-169.84		-0.0160288	0.0104673	-0.00629192		-0.445376	-0.129877	-9.79601		
1093455515.540		0.712855	-2.59266	-169.919		-0.000855363	0.0112341	0.00461927		-0.431677	-0.110089	-9.78541		
1093455515.642		0.702102	-2.56767	-170.099		-0.00184	0.00239036	-0.00817733		-0.443032	-0.140719	-9.7673		
1093455515.740		0.696624	-2.52691	-170.205		-0.00784625	0.00850607	-0.0235084		-0.424776	-0.127724	-9.75381		
1093455515.844		0.68622	-2.51654	-170.328		-0.00761519	0.0012956	-0.0076148		-0.466904	-0.132303	-9.75604		
1093455515.940		0.654499	-2.50593	-170.54		-0.00693704	-0.00257662	0.00347224		-0.428722	-0.110739	-9.76825		
1093455516.041		0.668991	-2.51427	-170.6		-0.00064659	0.0048086	-0.00231992		-0.419623	-0.133366	-9.76589		
1093455516.140		0.695753	-2.49925	-170.661		0.00585714	0.0126213	0.00693231		-0.427693	-0.106685	-9.78642		
1093455516.244		0.681116	-2.47844	-170.815		-0.00984677	0.00567458	-0.00386969		-0.447589	-0.11524	-9.77459		
